TimeUS,GyrX,GyrY,GyrZ,AccX,AccY,AccZ,EG,EA,T,GH,AH,GHz,AHz,timestamp
221021089.0,0.0034458008594810963,-0.008264944888651371,-0.0006867788615636528,-0.4092181324958801,0.21877919137477875,-10.089155197143555,0.0,0.0,32.59892272949219,1.0,1.0,8010.0,4005.0,1668050393.34011
221078634.0,0.0007522462983615696,-0.0001135380007326603,-0.005172739736735821,0.15670602023601532,-0.2767151892185211,-9.935702323913574,0.0,0.0,32.60098648071289,1.0,1.0,8010.0,4005.0,1668050393.397655
221118673.0,2.581601802376099e-05,0.00029823806835338473,-0.004188751336187124,-0.0628865659236908,0.21340154111385345,-9.66126823425293,0.0,0.0,32.60236740112305,1.0,1.0,8010.0,4005.0,1668050393.437694
221159060.0,-0.0001865013618953526,0.007343693170696497,0.0006493818946182728,0.11730779707431793,-0.048442207276821136,-9.627242088317871,0.0,0.0,32.604148864746094,1.0,1.0,8010.0,4005.0,1668050393.478081
221198653.0,0.0007293666712939739,-0.002281968016177416,0.001947069657035172,0.29486703872680664,-0.0657409206032753,-9.856722831726074,0.0,0.0,32.605491638183594,1.0,1.0,8010.0,4005.0,1668050393.517674
221238644.0,0.0009298095246776938,-0.003949364647269249,-0.00017562901484780014,0.2034272700548172,0.2633935213088989,-9.893160820007324,0.0,0.0,32.6060791015625,1.0,1.0,8010.0,4005.0,1668050393.5576649
221279021.0,0.0023316906299442053,-0.0052997819148004055,0.0036187474615871906,0.045443370938301086,-0.2817220091819763,-10.007719039916992,0.0,0.0,32.60628128051758,1.0,1.0,8010.0,4005.0,1668050393.598042
221318858.0,0.0018763469997793436,-0.006472857668995857,-0.006020714994519949,-0.04854058846831322,0.18309208750724792,-9.847111701965332,0.0,0.0,32.606266021728516,1.0,1.0,8010.0,4005.0,1668050393.637879
221359040.0,0.0014321415219455957,-0.002183355623856187,-0.0034724571742117405,0.036988355219364166,0.03555084764957428,-9.574323654174805,0.0,0.0,32.60663604736328,1.0,1.0,8010.0,4005.0,1668050393.678061
221399144.0,0.0014811694854870439,0.0004076159093528986,-0.0028674378991127014,-0.1149936243891716,-0.17650482058525085,-9.792906761169434,0.0,0.0,32.6070442199707,1.0,1.0,8010.0,4005.0,1668050393.718165
221438626.0,0.000770475366152823,0.0033284518867731094,-0.004480232484638691,0.16599971055984497,0.11764763295650482,-9.893150329589844,0.0,0.0,32.60760498046875,1.0,1.0,8010.0,4005.0,1668050393.757647
221478465.0,-0.0001436323655070737,0.0004320417356211692,-1.8415830709272996e-05,0.20082348585128784,0.10816497355699539,-9.931755065917969,0.0,0.0,32.60854721069336,1.0,1.0,8010.0,4005.0,1668050393.797486
221518682.0,-0.0005402175011113286,0.0005845994455739856,0.004580932669341564,0.16350071132183075,-0.20956122875213623,-9.900920867919922,0.0,0.0,32.609981536865234,1.0,1.0,8010.0,4005.0,1668050393.837703
221559366.0,0.0022154301404953003,-0.003629801096394658,0.00022845284547656775,0.16542178392410278,0.1055116355419159,-9.70177936553955,0.0,0.0,32.611454010009766,1.0,1.0,8010.0,4005.0,1668050393.878387
221598610.0,0.001693688565865159,-0.004734973423182964,-0.0033068214543163776,0.043476544320583344,0.14993537962436676,-9.742685317993164,0.0,0.0,32.61336135864258,1.0,1.0,8010.0,4005.0,1668050393.917631
221638695.0,0.0011652359971776605,-0.00519711896777153,-0.0012674492318183184,-0.03186170384287834,-0.054315902292728424,-9.798760414123535,0.0,0.0,32.61513900756836,1.0,1.0,8010.0,4005.0,1668050393.957716
221678793.0,0.003727625822648406,-0.001725369947962463,-0.0030679660849273205,-0.03510873764753342,-0.09862903505563736,-9.93000602722168,0.0,0.0,32.61707305908203,1.0,1.0,8010.0,4005.0,1668050393.997814
221718677.0,0.0012375495862215757,0.0018090965459123254,-0.006366928108036518,0.129485085606575,0.020979275926947594,-9.946791648864746,0.0,0.0,32.61878967285156,1.0,1.0,8010.0,4005.0,1668050394.037698
221759205.0,-0.002966471016407013,0.002515179105103016,-0.003280001226812601,0.11055560410022736,0.15683041512966156,-9.745035171508789,0.0,0.0,32.620574951171875,1.0,1.0,8010.0,4005.0,1668050394.078226
221798682.0,0.00042777814087457955,0.0003675365587696433,0.0040720561519265175,0.13465547561645508,-0.04311107099056244,-9.74941635131836,0.0,0.0,32.621883392333984,1.0,1.0,8010.0,4005.0,1668050394.117703
221838704.0,0.005822836421430111,-0.0019092131406068802,0.003667678451165557,0.09342199563980103,-0.03946191072463989,-9.841772079467773,0.0,0.0,32.622920989990234,1.0,1.0,8010.0,4005.0,1668050394.157725
221878791.0,0.00208541308529675,-0.0036880529951304197,-0.0007602667901664972,0.2148125320672989,-0.09362209588289261,-9.785483360290527,0.0,0.0,32.622859954833984,1.0,1.0,8010.0,4005.0,1668050394.197812
221918713.0,-0.002733849687501788,-0.004878196865320206,-0.004201279953122139,-0.06513821333646774,0.1329037994146347,-10.025728225708008,0.0,0.0,32.622711181640625,1.0,1.0,8010.0,4005.0,1668050394.237734
221959530.0,0.0012636524625122547,-0.002747249323874712,-0.004167786333709955,0.08426133543252945,0.02544369548559189,-9.776189804077148,0.0,0.0,32.62215042114258,1.0,1.0,8010.0,4005.0,1668050394.278551
221999027.0,0.003971701487898827,0.0007180615793913603,-0.002729950472712517,-0.011050031520426273,-0.009988589212298393,-9.755256652832031,0.0,0.0,32.622344970703125,1.0,1.0,8010.0,4005.0,1668050394.318048
222038651.0,0.0026824611704796553,0.001960648922249675,-0.0006646359106525779,0.09492737054824829,0.00019830814562737942,-9.745708465576172,0.0,0.0,32.6224479675293,1.0,1.0,8010.0,4005.0,1668050394.357672
222079075.0,-0.0008535950328223407,0.0004823276540264487,-0.001003255951218307,0.19138462841510773,-0.09349070489406586,-9.853449821472168,0.0,0.0,32.622920989990234,1.0,1.0,8010.0,4005.0,1668050394.398096
222118767.0,-0.0018068128265440464,-0.0019356682896614075,-0.0019322417210787535,0.13972848653793335,0.08987735211849213,-9.919954299926758,0.0,0.0,32.622745513916016,1.0,1.0,8010.0,4005.0,1668050394.437788
222159311.0,0.002032762859016657,-0.00404319865629077,0.000931096903514117,0.07989531010389328,0.09492475539445877,-9.89379596710205,0.0,0.0,32.6224365234375,1.0,1.0,8010.0,4005.0,1668050394.478332
222198612.0,0.004074299242347479,-0.0030924503225833178,0.002619793638586998,-0.0019019003957509995,0.004542930983006954,-9.806406021118164,0.0,0.0,32.622283935546875,1.0,1.0,8010.0,4005.0,1668050394.517633
222238722.0,0.0028046893421560526,-0.00036849232856184244,-7.862973143346608e-05,0.018569108098745346,-0.08949754387140274,-9.729362487792969,0.0,0.0,32.62339782714844,1.0,1.0,8010.0,4005.0,1668050394.557743
222278905.0,0.0004139125521760434,0.0002415338676655665,-0.005350734572857618,0.04690631479024887,-0.050808779895305634,-9.851816177368164,0.0,0.0,32.62443542480469,1.0,1.0,8010.0,4005.0,1668050394.597926
222318705.0,-0.0015377295203506947,0.0002290206030011177,-0.007169483229517937,0.18998844921588898,0.047674570232629776,-9.80980396270752,0.0,0.0,32.62580871582031,1.0,1.0,8010.0,4005.0,1668050394.637726
222359225.0,-0.000761161558330059,-0.0006769887404516339,-0.003689872333779931,0.08952197432518005,0.1314440667629242,-9.924995422363281,0.0,0.0,32.627559661865234,1.0,1.0,8010.0,4005.0,1668050394.678246
222399092.0,0.002722226083278656,-0.0022568562999367714,0.0018236624309793115,0.07873640954494476,0.08205291628837585,-9.816584587097168,0.0,0.0,32.6286506652832,1.0,1.0,8010.0,4005.0,1668050394.718113
222438689.0,0.004676459822803736,-0.0023189112544059753,0.005738397128880024,0.0802091658115387,-0.08626367151737213,-9.809244155883789,0.0,0.0,32.62934112548828,1.0,1.0,8010.0,4005.0,1668050394.75771
222479010.0,0.002347232075408101,-0.0012589964317157865,0.004136846400797367,0.0339137502014637,-0.08761940151453018,-9.796806335449219,0.0,0.0,32.629913330078125,1.0,1.0,8010.0,4005.0,1668050394.798031
222518613.0,-0.0014489074237644672,-0.00168612040579319,-0.0017016228521242738,0.07522875815629959,-0.060368094593286514,-9.852615356445312,0.0,0.0,32.630367279052734,1.0,1.0,8010.0,4005.0,1668050394.837634
222559131.0,-0.0020053954795002937,-0.0004819524474442005,-0.007348150014877319,0.09132085740566254,0.06912310421466827,-9.846735000610352,0.0,0.0,32.630287170410156,1.0,1.0,8010.0,4005.0,1668050394.878152
222598701.0,0.0006203912780620158,-0.000683016492985189,-0.007873538881540298,0.09220205992460251,0.14443834125995636,-9.858895301818848,0.0,0.0,32.63100814819336,1.0,1.0,8010.0,4005.0,1668050394.917722
222638662.0,0.003420611610636115,-0.0017251241952180862,-0.0041549610905349255,0.11830366402864456,0.06699485331773758,-9.79049301147461,0.0,0.0,32.63188552856445,1.0,1.0,8010.0,4005.0,1668050394.957683
222678904.0,0.0046837907284498215,-0.002222562674432993,0.0008194358088076115,0.0825529545545578,-0.0598972886800766,-9.831745147705078,0.0,0.0,32.632720947265625,1.0,1.0,8010.0,4005.0,1668050394.997925
222718664.0,0.0024480053689330816,-0.0013117266353219748,0.004406617023050785,0.06267482042312622,-0.06733616441488266,-9.804250717163086,0.0,0.0,32.633506774902344,1.0,1.0,8010.0,4005.0,1668050395.037685
222759238.0,-0.0009996924782171845,-0.000774514744989574,0.00424908148124814,0.07291775196790695,-0.023983795195817947,-9.862528800964355,0.0,0.0,32.63380813598633,1.0,1.0,8010.0,4005.0,1668050395.078259
222798821.0,-0.0017847382696345448,-0.0005607862840406597,0.0007932048756629229,0.06090700998902321,0.06969034671783447,-9.833105087280273,0.0,0.0,32.63384246826172,1.0,1.0,8010.0,4005.0,1668050395.117842
222838750.0,0.0002240849134977907,-0.00035250786459073424,-0.003856559516862035,0.08460070192813873,0.08715645223855972,-9.79951000213623,0.0,0.0,32.633609771728516,1.0,1.0,8010.0,4005.0,1668050395.1577709
222878640.0,0.0031990380957722664,-0.0005538266850635409,-0.006738594267517328,0.10783681273460388,0.0098146116361022,-9.792956352233887,0.0,0.0,32.634037017822266,1.0,1.0,8010.0,4005.0,1668050395.197661
222918630.0,0.004041885491460562,-0.0009860191494226456,-0.006529726088047028,0.11483892798423767,-0.031461212784051895,-9.827235221862793,0.0,0.0,32.63429260253906,1.0,1.0,8010.0,4005.0,1668050395.2376509
222959661.0,0.0020090527832508087,-0.0024025174789130688,-0.003451394848525524,0.08887501806020737,-0.050697579979896545,-9.850830078125,0.0,0.0,32.63425827026367,1.0,1.0,8010.0,4005.0,1668050395.278682
222999017.0,-0.0004274704842828214,-0.002205382101237774,0.0007930645369924605,0.053466349840164185,0.01758747547864914,-9.863178253173828,0.0,0.0,32.634883880615234,1.0,1.0,8010.0,4005.0,1668050395.318038
223038638.0,-0.0006680283695459366,-0.0018665349343791604,0.003891986096277833,0.04956579953432083,0.055334486067295074,-9.82239055633545,0.0,0.0,32.635528564453125,1.0,1.0,8010.0,4005.0,1668050395.357659
223078664.0,0.001197591656818986,-0.0006404134910553694,0.0038044992834329605,0.050968319177627563,0.058284129947423935,-9.812064170837402,0.0,0.0,32.63591384887695,1.0,1.0,8010.0,4005.0,1668050395.397685
223118718.0,0.0028707098681479692,-0.0007250552298501134,0.0011443570256233215,0.08155738562345505,-0.01275137159973383,-9.828619003295898,0.0,0.0,32.63652801513672,1.0,1.0,8010.0,4005.0,1668050395.437739
223159353.0,0.002395074814558029,8.837888162815943e-05,-0.004011627286672592,0.12495528161525726,-0.059634655714035034,-9.812573432922363,0.0,0.0,32.637447357177734,1.0,1.0,8010.0,4005.0,1668050395.478374
223198787.0,0.001006636186502874,-0.0014467331347987056,-0.007143871858716011,0.1170663982629776,-0.008422551676630974,-9.838112831115723,0.0,0.0,32.63901138305664,1.0,1.0,8010.0,4005.0,1668050395.517808
223238679.0,-0.0005465048016048968,-0.0018930432852357626,-0.006354559678584337,0.08239474892616272,0.0458572581410408,-9.81828784942627,0.0,0.0,32.641109466552734,1.0,1.0,8010.0,4005.0,1668050395.5577
223278721.0,0.0006170193664729595,-0.003201204352080822,-0.0019156649941578507,0.07274521887302399,0.06159394979476929,-9.834041595458984,0.0,0.0,32.64278793334961,1.0,1.0,8010.0,4005.0,1668050395.597742
223318812.0,0.002358809346333146,-0.0014162863371893764,0.0027593583799898624,0.03296012803912163,0.040931496769189835,-9.819772720336914,0.0,0.0,32.64463806152344,1.0,1.0,8010.0,4005.0,1668050395.6378329
223359083.0,0.0024629065301269293,-0.0013067835243418813,0.004347573965787888,0.07801353186368942,-0.02793722413480282,-9.866294860839844,0.0,0.0,32.64597702026367,1.0,1.0,8010.0,4005.0,1668050395.678104
223398803.0,0.0015731570310890675,0.00012235849862918258,0.001915551139973104,0.07378867268562317,-0.056683074682950974,-9.819018363952637,0.0,0.0,32.647098541259766,1.0,1.0,8010.0,4005.0,1668050395.717824
223438657.0,0.00019632601470220834,-0.0004567662253975868,-0.0020248389337211847,0.11447502672672272,0.0033557757269591093,-9.812920570373535,0.0,0.0,32.64861297607422,1.0,1.0,8010.0,4005.0,1668050395.757678
223478985.0,-8.82417953107506e-05,-0.0008081811829470098,-0.005231141112744808,0.08821597695350647,0.04180002957582474,-9.79180908203125,0.0,0.0,32.6497917175293,1.0,1.0,8010.0,4005.0,1668050395.798006
223518838.0,0.0009699880029074848,-0.001468429109081626,-0.005488055292516947,0.09942372143268585,0.04447053372859955,-9.851906776428223,0.0,0.0,32.651058197021484,1.0,1.0,8010.0,4005.0,1668050395.837859
223559339.0,0.00273693585768342,-0.0021350360475480556,-0.003065110184252262,0.0506792813539505,0.010589119046926498,-9.819208145141602,0.0,0.0,32.65225601196289,1.0,1.0,8010.0,4005.0,1668050395.87836
223598712.0,0.0023475433699786663,-0.0015606636879965663,0.0002500968112144619,0.07281596213579178,-0.030745381489396095,-9.887593269348145,0.0,0.0,32.6531982421875,1.0,1.0,8010.0,4005.0,1668050395.917733
223638502.0,0.0010161796817556024,-0.0004219156689941883,0.00253266841173172,0.057129815220832825,0.00874115340411663,-9.804245948791504,0.0,0.0,32.654239654541016,1.0,1.0,8010.0,4005.0,1668050395.9575229
223678948.0,-0.00010336765262763947,-0.0010667749447748065,0.0018160950858145952,0.10529036819934845,-0.008753182366490364,-9.82022762298584,0.0,0.0,32.655487060546875,1.0,1.0,8010.0,4005.0,1668050395.997969
223718689.0,1.329200040345313e-05,-0.00028037186712026596,-0.0005494891665875912,0.0851031094789505,0.038628410547971725,-9.794328689575195,0.0,0.0,32.65702819824219,1.0,1.0,8010.0,4005.0,1668050396.03771
223759022.0,0.001248925575055182,-0.0008560403948649764,-0.0031719661783427,0.10958594083786011,0.018041616305708885,-9.824270248413086,0.0,0.0,32.658973693847656,1.0,1.0,8010.0,4005.0,1668050396.078043
223798693.0,0.002158813178539276,-0.0017760193441063166,-0.004797523375600576,0.0823063850402832,0.028028050437569618,-9.827430725097656,0.0,0.0,32.66024398803711,1.0,1.0,8010.0,4005.0,1668050396.117714
223838714.0,0.0018657060572877526,-0.00187843875028193,-0.00464618019759655,0.08276714384555817,-0.007666675373911858,-9.892926216125488,0.0,0.0,32.66089630126953,1.0,1.0,8010.0,4005.0,1668050396.1577349
223878885.0,0.001142734894528985,-0.0013782854657620192,-0.0023979737889021635,0.049618467688560486,-0.004956527147442102,-9.808284759521484,0.0,0.0,32.66119384765625,1.0,1.0,8010.0,4005.0,1668050396.197906
223918805.0,0.0007658096728846431,-0.0009294886258430779,0.000572428572922945,0.07397034764289856,0.026257332414388657,-9.8111572265625,0.0,0.0,32.660125732421875,1.0,1.0,8010.0,4005.0,1668050396.2378259
223959339.0,0.0009195490274578333,-0.00042472651693969965,0.0023066920693963766,0.07265183329582214,0.02643645368516445,-9.800339698791504,0.0,0.0,32.659446716308594,1.0,1.0,8010.0,4005.0,1668050396.27836
223998828.0,0.0018028791528195143,-0.0006346630398184061,0.0018096845597028732,0.09873160719871521,0.0038451470900326967,-9.824932098388672,0.0,0.0,32.65904998779297,1.0,1.0,8010.0,4005.0,1668050396.317849
224038754.0,0.0020221048034727573,-0.0010444415966048837,-0.0005492401542142034,0.08353295922279358,-0.024986479431390762,-9.84921646118164,0.0,0.0,32.659576416015625,1.0,1.0,8010.0,4005.0,1668050396.357775
224078985.0,0.0011950419284403324,-0.0008049804018810391,-0.003858271986246109,0.08806698024272919,0.004767586477100849,-9.857016563415527,0.0,0.0,32.65933609008789,1.0,1.0,8010.0,4005.0,1668050396.398006
224118653.0,0.0009197468752972782,-0.0012888133060187101,-0.005146666429936886,0.06287187337875366,0.010936553589999676,-9.825069427490234,0.0,0.0,32.659820556640625,1.0,1.0,8010.0,4005.0,1668050396.437674
224159296.0,0.0005321303033269942,-0.0007777508581057191,-0.004085003398358822,0.0792165994644165,0.023645661771297455,-9.808465003967285,0.0,0.0,32.65966033935547,1.0,1.0,8010.0,4005.0,1668050396.478317
224198690.0,0.0011354184243828058,-0.0006747808074578643,-0.001173226861283183,0.08054443448781967,0.03900863975286484,-9.839970588684082,0.0,0.0,32.660648345947266,1.0,1.0,8010.0,4005.0,1668050396.517711
224238684.0,0.0010055199963971972,-0.0006123129278421402,0.001415885053575039,0.08909929543733597,-0.007429365999996662,-9.831117630004883,0.0,0.0,32.66246032714844,1.0,1.0,8010.0,4005.0,1668050396.557705
224278982.0,0.0014379563508555293,-0.0013898259494453669,0.0017115805530920625,0.09368246793746948,0.0026881746016442776,-9.856706619262695,0.0,0.0,32.6640510559082,1.0,1.0,8010.0,4005.0,1668050396.598003
224318473.0,0.0009063658653758466,-0.0007075962494127452,0.0001499937498010695,0.06385426223278046,-0.006136282812803984,-9.813287734985352,0.0,0.0,32.66547393798828,1.0,1.0,8010.0,4005.0,1668050396.637494
224359350.0,0.0008332961006090045,-0.0016069505363702774,-0.0021749422885477543,0.08504781126976013,0.005176710896193981,-9.815970420837402,0.0,0.0,32.666656494140625,1.0,1.0,8010.0,4005.0,1668050396.678371
227198784.0,-0.0015213268343359232,-0.0027554789558053017,0.005536568351089954,0.3206585645675659,-0.01533636823296547,-9.831940650939941,0.0,0.0,32.71308898925781,1.0,1.0,8010.0,4005.0,1668050399.517805
227238627.0,0.00014857554924674332,0.001977158710360527,0.011471481062471867,0.06804914772510529,0.19348075985908508,-9.666091918945312,0.0,0.0,32.71312713623047,1.0,1.0,8010.0,4005.0,1668050399.557648
227290441.0,0.0035746898502111435,-0.0028985142707824707,0.005786089226603508,0.1815212070941925,-0.09902921319007874,-9.86540699005127,0.0,0.0,32.712791442871094,1.0,1.0,8010.0,4005.0,1668050399.609462
227330586.0,0.006132534705102444,-0.003044056473299861,-0.004880618304014206,0.012973633594810963,-0.1557283252477646,-9.951972961425781,0.0,0.0,32.71282196044922,1.0,1.0,8010.0,4005.0,1668050399.649607
227371352.0,0.0032883239910006523,-0.0016907211393117905,-0.014786643907427788,0.1441192626953125,-0.057866886258125305,-9.82432746887207,0.0,0.0,32.712825775146484,1.0,1.0,8010.0,4005.0,1668050399.690373
227410654.0,0.002440208336338401,-0.0028744477313011885,-0.013391653075814247,-0.05025066062808037,0.05387679487466812,-9.879314422607422,0.0,0.0,32.713470458984375,1.0,1.0,8010.0,4005.0,1668050399.729675
227450540.0,0.0016188631998375058,-0.0031042308546602726,-0.006540221162140369,0.13289132714271545,0.02942882664501667,-9.803268432617188,0.0,0.0,32.71429443359375,1.0,1.0,8010.0,4005.0,1668050399.769561
227490570.0,0.000904844724573195,0.0024596531875431538,0.004445701837539673,-0.05882862210273743,-0.013667402788996696,-9.830180168151855,0.0,0.0,32.715736389160156,1.0,1.0,8010.0,4005.0,1668050399.809591
227530668.0,0.0026735838036984205,-0.00022233786876313388,0.010642319917678833,0.06805554032325745,0.05509022995829582,-9.83820915222168,0.0,0.0,32.717864990234375,1.0,1.0,8010.0,4005.0,1668050399.849689
227571628.0,0.003081934992223978,-0.0001382897316943854,0.008864112198352814,0.10782033205032349,-0.06383110582828522,-9.901719093322754,0.0,0.0,32.7202262878418,1.0,1.0,8010.0,4005.0,1668050399.890649
227610710.0,0.0027143587358295918,-0.0020602289587259293,0.0015038495184853673,0.13903646171092987,-0.014299933798611164,-9.836471557617188,0.0,0.0,32.722347259521484,1.0,1.0,8010.0,4005.0,1668050399.929731
227650528.0,0.00106578110717237,-0.0017939377576112747,-0.008787325583398342,0.1270100176334381,0.002213419647887349,-9.645389556884766,0.0,0.0,32.72386169433594,1.0,1.0,8010.0,4005.0,1668050399.969549
227690646.0,0.0010642120614647865,-0.00227510672993958,-0.0117245027795434,-0.031565308570861816,0.05471756309270859,-9.931136131286621,0.0,0.0,32.72499465942383,1.0,1.0,8010.0,4005.0,1668050400.009667
227730660.0,0.0017360671190544963,-0.0017296166624873877,-0.010095215402543545,0.14447319507598877,0.08520795404911041,-9.883320808410645,0.0,0.0,32.725685119628906,1.0,1.0,8010.0,4005.0,1668050400.049681
227771199.0,0.002814778359606862,-0.0028356716502457857,-0.0024844740983098745,0.03427477180957794,-0.020794473588466644,-9.76327133178711,0.0,0.0,32.72643280029297,1.0,1.0,8010.0,4005.0,1668050400.09022
227810525.0,0.002706259023398161,-0.00014815706526860595,0.006911470089107752,0.03016829490661621,0.009901465848088264,-9.835104942321777,0.0,0.0,32.727378845214844,1.0,1.0,8010.0,4005.0,1668050400.129546
227850493.0,0.000446746707893908,-0.0005043784622102976,0.007802681997418404,0.16358770430088043,0.0038680704310536385,-9.848312377929688,0.0,0.0,32.728424072265625,1.0,1.0,8010.0,4005.0,1668050400.169514
227890912.0,0.00010697042307583615,-0.0006454073591157794,0.005720934830605984,0.03391683101654053,-0.06289111077785492,-9.872583389282227,0.0,0.0,32.72930908203125,1.0,1.0,8010.0,4005.0,1668050400.209933
227930736.0,0.0010630199685692787,-0.002486430574208498,-0.002734861569479108,0.14606770873069763,0.046566903591156006,-9.76596450805664,0.0,0.0,32.72941589355469,1.0,1.0,8010.0,4005.0,1668050400.249757
227971350.0,0.0021336786448955536,-0.001004642341285944,-0.008382091298699379,0.03194780275225639,0.13007871806621552,-9.80842399597168,0.0,0.0,32.730133056640625,1.0,1.0,8010.0,4005.0,1668050400.290371
228010497.0,0.00296934787184,-0.002442467724904418,-0.009246306493878365,0.0642855316400528,-0.14241737127304077,-9.879005432128906,0.0,0.0,32.73139190673828,1.0,1.0,8010.0,4005.0,1668050400.329518
228050486.0,0.002688838867470622,-0.0022625464480370283,-0.007198951672762632,0.10234279930591583,0.059795863926410675,-9.768850326538086,0.0,0.0,32.73331069946289,1.0,1.0,8010.0,4005.0,1668050400.369507
228090687.0,0.0011370980646461248,-0.00017248860967811197,0.0006171239074319601,0.04404313862323761,0.07736992835998535,-9.881242752075195,0.0,0.0,32.73473358154297,1.0,1.0,8010.0,4005.0,1668050400.409708
228130607.0,0.00010851251136045903,-0.0013701594434678555,0.005629679653793573,0.05652696639299393,-0.03757509961724281,-9.83718490600586,0.0,0.0,32.735416412353516,1.0,1.0,8010.0,4005.0,1668050400.4496279
228170988.0,9.296215284848586e-05,-0.0009780065156519413,0.006271273363381624,0.1292177438735962,-0.014816716313362122,-9.80963134765625,0.0,0.0,32.73586654663086,1.0,1.0,8010.0,4005.0,1668050400.490009
228210591.0,0.0018399290274828672,-0.00036518165143206716,0.00244045234285295,0.08137628436088562,0.04983219876885414,-9.783012390136719,0.0,0.0,32.736358642578125,1.0,1.0,8010.0,4005.0,1668050400.529612
228250659.0,0.0027057502884417772,-0.0011395295150578022,-0.0036842310801148415,0.10737436264753342,-0.012650460936129093,-9.838892936706543,0.0,0.0,32.73689651489258,1.0,1.0,8010.0,4005.0,1668050400.56968
228290631.0,0.002182513941079378,-0.0032477478962391615,-0.008508380502462387,0.1099863275885582,-0.03026777133345604,-9.835037231445312,0.0,0.0,32.738197326660156,1.0,1.0,8010.0,4005.0,1668050400.609652
228330740.0,0.0016311086947098374,-0.0013604899868369102,-0.008300377987325191,0.03787679970264435,-0.004958846606314182,-9.853981018066406,0.0,0.0,32.73945999145508,1.0,1.0,8010.0,4005.0,1668050400.649761
228371233.0,0.0013169641606509686,-0.0024315330665558577,-0.0041700503788888454,0.08303434401750565,0.04918965324759483,-9.798442840576172,0.0,0.0,32.74088668823242,1.0,1.0,8010.0,4005.0,1668050400.690254
228410655.0,0.000906901725102216,-0.00048324940144084394,0.001814643619582057,0.03333257883787155,0.031353216618299484,-9.832121849060059,0.0,0.0,32.7421760559082,1.0,1.0,8010.0,4005.0,1668050400.729676
228450609.0,0.0017297962913289666,-0.0004028210532851517,0.0052705006673932076,0.11622001230716705,0.022343408316373825,-9.795064926147461,0.0,0.0,32.74258804321289,1.0,1.0,8010.0,4005.0,1668050400.76963
228490626.0,0.0011821649968624115,0.00034399921423755586,0.005076606757938862,0.07435156404972076,0.02967473492026329,-9.824249267578125,0.0,0.0,32.743682861328125,1.0,1.0,8010.0,4005.0,1668050400.809647
228530564.0,0.0013136619236320257,-0.0016166461864486337,0.0003530019603203982,0.11960556358098984,-0.08964018523693085,-9.860956192016602,0.0,0.0,32.74465560913086,1.0,1.0,8010.0,4005.0,1668050400.849585
228571303.0,0.00034014496486634016,-0.0015671439468860626,-0.006228509824723005,0.10897526144981384,0.045864712446928024,-9.818831443786621,0.0,0.0,32.74504089355469,1.0,1.0,8010.0,4005.0,1668050400.8903239
228610801.0,0.0008572155493311584,-0.002412569709122181,-0.007924113422632217,0.08337480574846268,0.07265648245811462,-9.808623313903809,0.0,0.0,32.74491882324219,1.0,1.0,8010.0,4005.0,1668050400.929822
228650697.0,0.0019528218545019627,-0.0019136685878038406,-0.0058658127672970295,-0.001975688152015209,-0.025122931227087975,-9.847030639648438,0.0,0.0,32.74554443359375,1.0,1.0,8010.0,4005.0,1668050400.969718
228690718.0,0.001544757280498743,-0.0011437159264460206,-0.0015461293514817953,0.1255122423171997,-0.0026760331820696592,-9.798575401306152,0.0,0.0,32.74544906616211,1.0,1.0,8010.0,4005.0,1668050401.009739
228730483.0,0.001289699343033135,-0.0008607628406025469,0.0023482386022806168,0.0647273063659668,0.040953390300273895,-9.836499214172363,0.0,0.0,32.74574661254883,1.0,1.0,8010.0,4005.0,1668050401.049504
228771286.0,0.0007058409391902387,-0.0005377897759899497,0.004947979934513569,0.09312717616558075,0.0030009252950549126,-9.840306282043457,0.0,0.0,32.745849609375,1.0,1.0,8010.0,4005.0,1668050401.090307
228810655.0,0.001007064594887197,0.00010359036241425201,0.0019661346450448036,0.08805826306343079,-0.03410516679286957,-9.798354148864746,0.0,0.0,32.74591064453125,1.0,1.0,8010.0,4005.0,1668050401.129676
228850622.0,0.001177700236439705,-0.0023335986770689487,-0.0027001064736396074,0.10603395104408264,0.01837250590324402,-9.849817276000977,0.0,0.0,32.74576950073242,1.0,1.0,8010.0,4005.0,1668050401.169643
228890493.0,0.0010858778841793537,-0.0014665205962955952,-0.005837399512529373,0.07908200472593307,0.02283450961112976,-9.79861068725586,0.0,0.0,32.74530029296875,1.0,1.0,8010.0,4005.0,1668050401.209514
228930516.0,0.0019385358318686485,-0.0024357151705771685,-0.006399644073098898,0.08096705377101898,0.011732068844139576,-9.825902938842773,0.0,0.0,32.744911193847656,1.0,1.0,8010.0,4005.0,1668050401.249537
228971549.0,0.002044107299298048,-0.0011365007376298308,-0.0037175090983510017,0.05020848289132118,-0.008711658418178558,-9.8341064453125,0.0,0.0,32.74513244628906,1.0,1.0,8010.0,4005.0,1668050401.29057
229010666.0,0.0003672705788630992,-0.00048487901221960783,-0.00026753952261060476,0.0647164136171341,-0.013535884208977222,-9.850444793701172,0.0,0.0,32.74524688720703,1.0,1.0,8010.0,4005.0,1668050401.3296869
229050767.0,-0.00017263376503251493,-0.0006224451353773475,0.0029631536453962326,0.07875733822584152,0.016777263954281807,-9.806602478027344,0.0,0.0,32.74543380737305,1.0,1.0,8010.0,4005.0,1668050401.369788
229090568.0,0.0002640367019921541,-0.001351892133243382,0.0031675591599196196,0.0997776985168457,0.05199205130338669,-9.860629081726074,0.0,0.0,32.74632263183594,1.0,1.0,8010.0,4005.0,1668050401.409589
229130568.0,0.0011240101885050535,-0.0009257663041353226,0.0005493862554430962,0.09009930491447449,-0.02271469496190548,-9.782440185546875,0.0,0.0,32.74767303466797,1.0,1.0,8010.0,4005.0,1668050401.449589
229171374.0,0.002337876707315445,-0.0018004789017140865,-0.0034056194126605988,0.10194793343544006,0.006873768288642168,-9.845565795898438,0.0,0.0,32.74942398071289,1.0,1.0,8010.0,4005.0,1668050401.490395
229210746.0,0.0014166388427838683,-0.0016128845745697618,-0.005532047711312771,0.05643431097269058,0.016208475455641747,-9.825916290283203,0.0,0.0,32.75096893310547,1.0,1.0,8010.0,4005.0,1668050401.529767
229250633.0,0.0013011686969548464,-0.0008583368617109954,-0.00586428539827466,0.07747487723827362,-0.012871300801634789,-9.853867530822754,0.0,0.0,32.75260925292969,1.0,1.0,8010.0,4005.0,1668050401.569654
229290498.0,0.0008362500811927021,-0.0012140119215473533,-0.0026625252794474363,0.07602813094854355,0.0467265285551548,-9.809673309326172,0.0,0.0,32.75423812866211,1.0,1.0,8010.0,4005.0,1668050401.609519
229330694.0,0.0006140393670648336,-0.0007101131486706436,0.0010577829089015722,0.07652149349451065,0.03919028490781784,-9.833016395568848,0.0,0.0,32.7557487487793,1.0,1.0,8010.0,4005.0,1668050401.649715
229371298.0,0.001309283310547471,-0.001046508550643921,0.0031110753770917654,0.08960264176130295,-0.007533172145485878,-9.816936492919922,0.0,0.0,32.756954193115234,1.0,1.0,8010.0,4005.0,1668050401.690319
229410727.0,0.0013847190421074629,-0.0006723235128447413,0.0021344933193176985,0.10425017774105072,-0.023128697648644447,-9.827061653137207,0.0,0.0,32.75785446166992,1.0,1.0,8010.0,4005.0,1668050401.729748
229450698.0,0.0010382367763668299,-0.0011990867787972093,-0.0007405104697681963,0.07994265854358673,0.008327178657054901,-9.826797485351562,0.0,0.0,32.7586555480957,1.0,1.0,8010.0,4005.0,1668050401.769719
229490453.0,0.001362125389277935,-0.0012514223344624043,-0.004299661610275507,0.08794011920690536,-0.01078876294195652,-9.848207473754883,0.0,0.0,32.75926208496094,1.0,1.0,8010.0,4005.0,1668050401.809474
229530629.0,0.001103533897548914,-0.0020072420593351126,-0.0055278390645980835,0.07240843772888184,0.019696246832609177,-9.83702564239502,0.0,0.0,32.760135650634766,1.0,1.0,8010.0,4005.0,1668050401.84965
229571334.0,0.0012493300018832088,-0.0008306275121867657,-0.00391228636726737,0.08177580684423447,0.03651588037610054,-9.815652847290039,0.0,0.0,32.76106643676758,1.0,1.0,8010.0,4005.0,1668050401.8903549
229610575.0,0.0012954320991411805,-0.0012973863631486893,-0.0009502787725068629,0.07232579588890076,0.011044792830944061,-9.833464622497559,0.0,0.0,32.76232147216797,1.0,1.0,8010.0,4005.0,1668050401.929596
229650510.0,0.0010387834627181292,-0.0009030518122017384,0.0016365767223760486,0.07430246472358704,0.0011598317651078105,-9.80182933807373,0.0,0.0,32.76309585571289,1.0,1.0,8010.0,4005.0,1668050401.969531
229690583.0,0.0016258241375908256,-0.0014607004122808576,0.0021664819214493036,0.10009638965129852,-0.0018632402643561363,-9.854116439819336,0.0,0.0,32.763675689697266,1.0,1.0,8010.0,4005.0,1668050402.009604
229730660.0,0.0007409359677694738,-0.0009744783747009933,0.0006911150412634015,0.06152490898966789,0.0017801191424950957,-9.815343856811523,0.0,0.0,32.764163970947266,1.0,1.0,8010.0,4005.0,1668050402.049681
229771260.0,0.001307095168158412,-0.002090123016387224,-0.0025164769031107426,0.08634746074676514,0.0036257447209209204,-9.83515453338623,0.0,0.0,32.76521682739258,1.0,1.0,8010.0,4005.0,1668050402.090281
229810564.0,0.0017962015699595213,-0.001268846564926207,-0.00467168353497982,0.057558298110961914,0.024059824645519257,-9.80478286743164,0.0,0.0,32.76630401611328,1.0,1.0,8010.0,4005.0,1668050402.129585
229850448.0,0.0017387691186740994,-0.0013094648020341992,-0.004565246403217316,0.10191993415355682,0.009845728054642677,-9.8538818359375,0.0,0.0,32.766746520996094,1.0,1.0,8010.0,4005.0,1668050402.1694689
229890640.0,0.0010577294742688537,-0.0011201738379895687,-0.002453136257827282,0.06608684360980988,0.000166910162079148,-9.814214706420898,0.0,0.0,32.76675033569336,1.0,1.0,8010.0,4005.0,1668050402.209661
229930643.0,0.0012299465015530586,-0.001599035458639264,0.00021277515043038875,0.10437774658203125,0.008261879906058311,-9.85826587677002,0.0,0.0,32.76670455932617,1.0,1.0,8010.0,4005.0,1668050402.249664
229971415.0,0.0006891587399877608,-0.0006342150154523551,0.001848268206231296,0.055882878601551056,0.003347625257447362,-9.803627014160156,0.0,0.0,32.7667350769043,1.0,1.0,8010.0,4005.0,1668050402.290436
230010484.0,0.0005328436382114887,-0.001629965496249497,0.0012245505349710584,0.10631509125232697,-0.008144313469529152,-9.833272933959961,0.0,0.0,32.766117095947266,1.0,1.0,8010.0,4005.0,1668050402.329505
230050726.0,0.000808985554613173,-0.001287825871258974,-0.0010024270741268992,0.05822082608938217,0.022237999364733696,-9.80959415435791,0.0,0.0,32.76555252075195,1.0,1.0,8010.0,4005.0,1668050402.369747
230090849.0,0.0009383071446791291,-0.0014331159181892872,-0.003427850781008601,0.12250713258981705,0.007747956085950136,-9.845008850097656,0.0,0.0,32.765926361083984,1.0,1.0,8010.0,4005.0,1668050402.40987
233051195.0,0.0032699641305953264,0.0021979345474392176,-0.0036655887961387634,-0.22605650126934052,0.05548962950706482,-9.97270679473877,0.0,0.0,32.817569732666016,1.0,1.0,8010.0,4005.0,1668050405.370216
233104160.0,0.001061676419340074,-0.0011892961338162422,0.0004121701349504292,0.6604766845703125,0.4132021367549896,-9.925308227539062,0.0,0.0,32.81915283203125,1.0,1.0,8010.0,4005.0,1668050405.423181
233143993.0,0.0034069810062646866,0.002658227691426873,0.0073819393292069435,-0.3677637577056885,-0.2629913091659546,-9.759903907775879,0.0,0.0,32.8203239440918,1.0,1.0,8010.0,4005.0,1668050405.463014
233184478.0,7.696782995481044e-05,-0.0030187000520527363,-0.003683610586449504,0.5929950475692749,0.3756924271583557,-9.806405067443848,0.0,0.0,32.82160186767578,1.0,1.0,8010.0,4005.0,1668050405.503499
233224031.0,0.0025056106969714165,-0.0001782080071279779,0.0013844366185367107,-0.31098639965057373,-0.21641294658184052,-9.747037887573242,0.0,0.0,32.82326889038086,1.0,1.0,8010.0,4005.0,1668050405.543052
233264451.0,0.0011445798445492983,-0.0040518795140087605,-0.007078106515109539,0.5820579528808594,0.39951401948928833,-9.941777229309082,0.0,0.0,32.82506561279297,1.0,1.0,8010.0,4005.0,1668050405.583472
233304028.0,0.002287506591528654,0.0003067178186029196,-0.004587502684444189,-0.4084235429763794,-0.14094854891300201,-9.905378341674805,0.0,0.0,32.826114654541016,1.0,1.0,8010.0,4005.0,1668050405.623049
233344109.0,0.003036808455362916,-0.003963937051594257,-0.00023441931989509612,0.4914413094520569,-0.075895756483078,-9.803173065185547,0.0,0.0,32.826904296875,1.0,1.0,8010.0,4005.0,1668050405.66313
233385077.0,0.0019982699304819107,0.003085165284574032,-0.00399883883073926,-0.15760311484336853,0.478212833404541,-9.66866397857666,0.0,0.0,32.827369689941406,1.0,1.0,8010.0,4005.0,1668050405.704098
233424033.0,0.0011532685020938516,-0.001019749790430069,0.002829557517543435,-0.3765801787376404,-0.4614090919494629,-9.855703353881836,0.0,0.0,32.828102111816406,1.0,1.0,8010.0,4005.0,1668050405.743054
233464476.0,0.0011173279490321875,0.002337222220376134,0.008512960746884346,0.7750165462493896,0.28356680274009705,-9.675155639648438,0.0,0.0,32.828792572021484,1.0,1.0,8010.0,4005.0,1668050405.783497
233504381.0,-0.0001554483169456944,-0.002148635219782591,-0.00931874755769968,-0.44901102781295776,-0.0631379783153534,-9.977072715759277,0.0,0.0,32.829750061035156,1.0,1.0,8010.0,4005.0,1668050405.823402
233544083.0,0.0038813173305243254,-0.003074664855375886,0.004089321009814739,0.49880945682525635,-0.2505199611186981,-9.866769790649414,0.0,0.0,32.82977294921875,1.0,1.0,8010.0,4005.0,1668050405.863104
233584617.0,0.0011051748879253864,-0.001947065000422299,-0.004103320650756359,0.15445217490196228,0.5513886213302612,-9.752091407775879,0.0,0.0,32.829715728759766,1.0,1.0,8010.0,4005.0,1668050405.903638
233624111.0,0.0009303750703111291,0.0006820486159995198,-0.011039236560463905,-0.46421128511428833,-0.44518542289733887,-9.958242416381836,0.0,0.0,32.82981491088867,1.0,1.0,8010.0,4005.0,1668050405.943132
233664008.0,0.006300965324044228,-0.0026753791607916355,0.0074439626187086105,0.48916274309158325,0.07138530164957047,-9.805413246154785,0.0,0.0,32.8300666809082,1.0,1.0,8010.0,4005.0,1668050405.983029
233704041.0,-0.003777911188080907,-9.300242527388036e-05,-0.003067414741963148,0.11616440117359161,0.3331871032714844,-9.79721736907959,0.0,0.0,32.829986572265625,1.0,1.0,8010.0,4005.0,1668050406.023062
233744120.0,0.0005309440894052386,0.000325275759678334,-0.006384814623743296,-0.32202237844467163,-0.33445727825164795,-9.898079872131348,0.0,0.0,32.82990264892578,1.0,1.0,8010.0,4005.0,1668050406.0631409
233784422.0,0.008822368457913399,-0.00445166788995266,0.011725717224180698,0.4798886179924011,0.13213598728179932,-9.852365493774414,0.0,0.0,32.83071517944336,1.0,1.0,8010.0,4005.0,1668050406.103443
233824146.0,-0.005006854888051748,0.003924140240997076,-0.0019380610901862383,0.08524230122566223,0.09403487294912338,-9.750873565673828,0.0,0.0,32.83186340332031,1.0,1.0,8010.0,4005.0,1668050406.143167
233864328.0,0.0006301212124526501,-0.004905128851532936,-0.007659463211894035,-0.19551482796669006,-0.1022164523601532,-9.910635948181152,0.0,0.0,32.832950592041016,1.0,1.0,8010.0,4005.0,1668050406.183349
233903960.0,0.008278591558337212,-0.003130059689283371,-0.0016670572804287076,0.2657911479473114,0.007282689213752747,-9.841930389404297,0.0,0.0,32.83475875854492,1.0,1.0,8010.0,4005.0,1668050406.222981
233943996.0,-0.002692131558433175,0.0028737483080476522,-0.0002491405757609755,-0.013614585623145103,-0.12215761840343475,-9.742912292480469,0.0,0.0,32.836429595947266,1.0,1.0,8010.0,4005.0,1668050406.263017
233984877.0,-0.0018203089712187648,-0.000933138479012996,-0.0013807782670482993,0.20849114656448364,0.1917036473751068,-9.834200859069824,0.0,0.0,32.83729553222656,1.0,1.0,8010.0,4005.0,1668050406.303898
234024023.0,0.004392256028950214,-0.004002924542874098,-0.006534357089549303,-0.029330622404813766,-0.03594308719038963,-9.830832481384277,0.0,0.0,32.83842468261719,1.0,1.0,8010.0,4005.0,1668050406.343044
234064413.0,0.0030413034837692976,0.000899036880582571,0.001445538247935474,0.03228763863444328,-0.08243007212877274,-9.80439567565918,0.0,0.0,32.8398323059082,1.0,1.0,8010.0,4005.0,1668050406.383434
234104113.0,0.0006979774334467947,0.0011091677006334066,0.00871378742158413,0.23071697354316711,0.018471941351890564,-9.845149993896484,0.0,0.0,32.8409538269043,1.0,1.0,8010.0,4005.0,1668050406.423134
234144116.0,-0.0026887287385761738,-0.003114430233836174,-0.0031704274006187916,0.10857652872800827,-0.06573882699012756,-9.793020248413086,0.0,0.0,32.84175491333008,1.0,1.0,8010.0,4005.0,1668050406.463137
234184658.0,0.0013414295390248299,-0.003067090641707182,-0.007819429971277714,0.04473474621772766,0.21728329360485077,-9.815777778625488,0.0,0.0,32.84226989746094,1.0,1.0,8010.0,4005.0,1668050406.503679
234224033.0,0.006617467384785414,-0.0014776691095903516,-0.005153179168701172,-0.060000866651535034,0.02179989218711853,-9.881016731262207,0.0,0.0,32.842857360839844,1.0,1.0,8010.0,4005.0,1668050406.543054
234264418.0,0.0015425349120050669,0.0001581832766532898,0.0024420516565442085,0.1531129777431488,-0.20094870030879974,-9.810717582702637,0.0,0.0,32.844032287597656,1.0,1.0,8010.0,4005.0,1668050406.5834389
234304111.0,-0.002298538340255618,0.00015653084847144783,0.003402702510356903,0.19287610054016113,0.07832464575767517,-9.800215721130371,0.0,0.0,32.8449821472168,1.0,1.0,8010.0,4005.0,1668050406.623132
234344011.0,4.1458963096374646e-05,-0.0017548883333802223,-0.0021710435394197702,0.0871271938085556,0.014749346300959587,-9.860803604125977,0.0,0.0,32.84654998779297,1.0,1.0,8010.0,4005.0,1668050406.663032
234384839.0,0.003553439397364855,-0.003375433385372162,-0.0034719870891422033,0.050556670874357224,0.07674619555473328,-9.810742378234863,0.0,0.0,32.84819412231445,1.0,1.0,8010.0,4005.0,1668050406.70386
234424120.0,0.004994524642825127,-0.0005531999049708247,-0.00232351734302938,0.01380346529185772,-0.03935883194208145,-9.826419830322266,0.0,0.0,32.849571228027344,1.0,1.0,8010.0,4005.0,1668050406.743141
234464468.0,0.0018790627364069223,0.0010450726840645075,0.0016542532248422503,0.09942000359296799,-0.09670080244541168,-9.828169822692871,0.0,0.0,32.850791931152344,1.0,1.0,8010.0,4005.0,1668050406.783489
234504452.0,-0.0026763207279145718,0.0005650299717672169,0.002705767285078764,0.17282605171203613,0.028585415333509445,-9.81941032409668,0.0,0.0,32.85151672363281,1.0,1.0,8010.0,4005.0,1668050406.823473
234544064.0,-0.0010313712991774082,-0.001888089464046061,-0.0025249249301850796,0.08128060400485992,0.09218420088291168,-9.807190895080566,0.0,0.0,32.85223388671875,1.0,1.0,8010.0,4005.0,1668050406.863085
234584696.0,0.003237880067899823,-0.003156317863613367,-0.006554079242050648,0.07977432012557983,0.13992200791835785,-9.859929084777832,0.0,0.0,32.852134704589844,1.0,1.0,8010.0,4005.0,1668050406.903717
234624057.0,0.004237070679664612,-0.0012092713732272387,-0.005832239519804716,-0.011050986126065254,-0.01863027736544609,-9.807415008544922,0.0,0.0,32.852134704589844,1.0,1.0,8010.0,4005.0,1668050406.943078
234664365.0,0.004645221866667271,-0.0004435857408680022,-0.000341827399097383,0.008147871121764183,-0.1353786587715149,-9.863283157348633,0.0,0.0,32.8523063659668,1.0,1.0,8010.0,4005.0,1668050406.983386
234704034.0,-0.0003029135405085981,0.0008921322296373546,0.004098685923963785,0.13312944769859314,-0.06516166031360626,-9.832191467285156,0.0,0.0,32.85211944580078,1.0,1.0,8010.0,4005.0,1668050407.023055
234743977.0,-0.004668820183724165,0.001210483256727457,0.005072500556707382,0.11842382699251175,0.04257247596979141,-9.827699661254883,0.0,0.0,32.85289001464844,1.0,1.0,8010.0,4005.0,1668050407.062998
234784705.0,-0.0014850028092041612,-0.002435581525787711,0.0020135235972702503,0.1485111266374588,0.15952332317829132,-9.783843040466309,0.0,0.0,32.853694915771484,1.0,1.0,8010.0,4005.0,1668050407.103726
234824130.0,0.0037874893750995398,-0.003279043361544609,-0.005218953359872103,0.08712819218635559,0.045732494443655014,-9.860369682312012,0.0,0.0,32.854373931884766,1.0,1.0,8010.0,4005.0,1668050407.143151
234864088.0,0.006438991520553827,-0.003518887795507908,-0.008986041881144047,0.013107105158269405,-0.013745982199907303,-9.824932098388672,0.0,0.0,32.855796813964844,1.0,1.0,8010.0,4005.0,1668050407.183109
234904032.0,0.00486660236492753,-0.002091336529701948,-0.00782298669219017,0.017514584586024284,-0.09699251502752304,-9.853885650634766,0.0,0.0,32.857147216796875,1.0,1.0,8010.0,4005.0,1668050407.223053
234943993.0,-0.0018574700225144625,0.0007908140541985631,-0.001838770927861333,0.041511088609695435,-0.08020301163196564,-9.825103759765625,0.0,0.0,32.858638763427734,1.0,1.0,8010.0,4005.0,1668050407.263014
234984696.0,-0.004261740483343601,0.002750186715275049,0.0052474187687039375,0.10831620544195175,0.10206811875104904,-9.802875518798828,0.0,0.0,32.85990524291992,1.0,1.0,8010.0,4005.0,1668050407.303717
235024329.0,-0.001236473210155964,0.0005491574993357062,0.008564207702875137,0.14084410667419434,0.12466428428888321,-9.84088134765625,0.0,0.0,32.86161422729492,1.0,1.0,8010.0,4005.0,1668050407.34335
235064635.0,0.0024112241808325052,-0.0005373310414142907,0.005984567571431398,0.15838979184627533,0.05283486098051071,-9.803568840026855,0.0,0.0,32.863521575927734,1.0,1.0,8010.0,4005.0,1668050407.383656
235104078.0,0.005284342914819717,-0.003921099938452244,-0.002238475251942873,0.11108327656984329,-0.06539022922515869,-9.831725120544434,0.0,0.0,32.86469650268555,1.0,1.0,8010.0,4005.0,1668050407.423099
235143918.0,0.004403676372021437,-0.00449404027312994,-0.010650377720594406,0.054993629455566406,-0.11875160038471222,-9.826128005981445,0.0,0.0,32.865501403808594,1.0,1.0,8010.0,4005.0,1668050407.462939
235184737.0,0.00015923587488941848,-0.003210254479199648,-0.013860464096069336,0.023470865562558174,-0.009477190673351288,-9.846407890319824,0.0,0.0,32.8654899597168,1.0,1.0,8010.0,4005.0,1668050407.503758
235224044.0,-0.0017361390637233853,0.0006491083186119795,-0.008133692666888237,-0.002543800510466099,0.06895852833986282,-9.815590858459473,0.0,0.0,32.86552810668945,1.0,1.0,8010.0,4005.0,1668050407.543065
235264339.0,-0.00039410110912285745,0.0003990253317169845,0.002363939769566059,0.10145518183708191,0.10596729815006256,-9.856934547424316,0.0,0.0,32.86613082885742,1.0,1.0,8010.0,4005.0,1668050407.58336
235303955.0,0.0020481212995946407,0.0019628191366791725,0.010885445401072502,0.11384692788124084,0.05305427312850952,-9.805072784423828,0.0,0.0,32.86688232421875,1.0,1.0,8010.0,4005.0,1668050407.622976
235344148.0,0.0035250275395810604,0.0002418128278804943,0.011556806042790413,0.18251493573188782,-0.053796764463186264,-9.832791328430176,0.0,0.0,32.86744689941406,1.0,1.0,8010.0,4005.0,1668050407.663169
235384747.0,0.001541503006592393,-0.0017425111727789044,0.003821143414825201,0.12076447904109955,-0.07307719439268112,-9.798088073730469,0.0,0.0,32.86817169189453,1.0,1.0,8010.0,4005.0,1668050407.703768
235424107.0,7.546444976469502e-05,-0.0035018660128116608,-0.0071351369842886925,0.07792850583791733,-0.014688033610582352,-9.846878051757812,0.0,0.0,32.868873596191406,1.0,1.0,8010.0,4005.0,1668050407.743128
235464228.0,0.0005910263280384243,-0.0031953821890056133,-0.01365366205573082,0.004430973902344704,0.07876475155353546,-9.83631706237793,0.0,0.0,32.86945724487305,1.0,1.0,8010.0,4005.0,1668050407.783249
235504272.0,0.001652711071074009,-0.001952239777892828,-0.0126720629632473,0.039476893842220306,0.05580085143446922,-9.86181354522705,0.0,0.0,32.86916732788086,1.0,1.0,8010.0,4005.0,1668050407.823293
235544139.0,0.0026986515149474144,0.0003799897967837751,-0.004139631520956755,0.056082673370838165,0.02150944247841835,-9.824649810791016,0.0,0.0,32.86863708496094,1.0,1.0,8010.0,4005.0,1668050407.86316
235584629.0,0.002490927465260029,0.0006458836141973734,0.0044893682934343815,0.11540073156356812,-0.03717014938592911,-9.861445426940918,0.0,0.0,32.86858367919922,1.0,1.0,8010.0,4005.0,1668050407.90365
235624164.0,0.00033991067903116345,-8.965989400167018e-05,0.009007720276713371,0.12164771556854248,-0.035701051354408264,-9.785874366760254,0.0,0.0,32.86864471435547,1.0,1.0,8010.0,4005.0,1668050407.943185
235664031.0,-0.00037152800359763205,-0.0013718463014811277,0.006770320236682892,0.14177855849266052,0.01634826883673668,-9.827742576599121,0.0,0.0,32.868595123291016,1.0,1.0,8010.0,4005.0,1668050407.983052
235704029.0,0.0005360179347917438,-0.0022178569342941046,-0.0001250879286089912,0.0607634112238884,0.05571999400854111,-9.79460620880127,0.0,0.0,32.86859893798828,1.0,1.0,8010.0,4005.0,1668050408.02305
238343722.0,0.0004748182836920023,0.0013018454192206264,-0.004688733723014593,0.18440091609954834,0.1666439026594162,-9.994291305541992,0.0,0.0,32.92673873901367,1.0,1.0,8010.0,4005.0,1668050410.662743
238384640.0,0.0017062751576304436,0.0014990150230005383,0.005083716940134764,-0.03775829076766968,-0.4591398239135742,-9.883094787597656,0.0,0.0,32.92894744873047,1.0,1.0,8010.0,4005.0,1668050410.703661
238436014.0,-0.0006681465310975909,0.0005738789332099259,-0.00664115697145462,0.2455270141363144,0.3982257843017578,-9.725674629211426,0.0,0.0,32.9305419921875,1.0,1.0,8010.0,4005.0,1668050410.755035
238476271.0,0.0016019009053707123,-0.002088024280965328,4.7398767492268234e-05,0.10414379090070724,-0.260395348072052,-9.796375274658203,0.0,0.0,32.93107986450195,1.0,1.0,8010.0,4005.0,1668050410.795292
238515863.0,0.0016276510432362556,-0.003643544390797615,-2.5620196538511664e-05,0.07338825613260269,0.2998785376548767,-9.868307113647461,0.0,0.0,32.931602478027344,1.0,1.0,8010.0,4005.0,1668050410.834884
238556183.0,-0.000750091508962214,-0.002886166563257575,-0.005300560034811497,0.0058377645909786224,-0.17184002697467804,-9.993735313415527,0.0,0.0,32.932472229003906,1.0,1.0,8010.0,4005.0,1668050410.875204
238596477.0,0.003917493857443333,-0.0005250765825621784,0.0007545905536971986,0.1169743537902832,-0.05884541943669319,-9.934630393981934,0.0,0.0,32.932716369628906,1.0,1.0,8010.0,4005.0,1668050410.915498
238635737.0,0.0004916705074720085,-0.00011803967208834365,0.0007586135761812329,-0.14800456166267395,0.11013241112232208,-9.7511568069458,0.0,0.0,32.93275833129883,1.0,1.0,8010.0,4005.0,1668050410.954758
238676088.0,-0.0018234524177387357,0.0008466433500871062,-0.0034141296055167913,0.23584704101085663,0.04548991471529007,-9.676539421081543,0.0,0.0,32.932640075683594,1.0,1.0,8010.0,4005.0,1668050410.995109
238716202.0,0.003322782926261425,-0.001015123096294701,0.00037098326720297337,0.17377331852912903,-0.1673026978969574,-9.778322219848633,0.0,0.0,32.93279266357422,1.0,1.0,8010.0,4005.0,1668050411.035223
238755869.0,0.0004809663805644959,-0.0037001464515924454,-0.00045323994709178805,-0.03797127306461334,-0.004863984417170286,-9.919879913330078,0.0,0.0,32.93225860595703,1.0,1.0,8010.0,4005.0,1668050411.07489
238796477.0,1.3855576980859041e-05,-0.002231200924143195,0.00010238541290163994,0.1601947844028473,0.21025560796260834,-9.980304718017578,0.0,0.0,32.931861877441406,1.0,1.0,8010.0,4005.0,1668050411.115498
238835813.0,0.002451475476846099,-0.00018216566240880638,-0.0054055736400187016,0.06440538167953491,-0.0985533595085144,-9.733054161071777,0.0,0.0,32.931888580322266,1.0,1.0,8010.0,4005.0,1668050411.154834
238875870.0,0.00219108909368515,-0.0027150921523571014,-0.002303393092006445,-0.10808613896369934,-0.06388407945632935,-9.797202110290527,0.0,0.0,32.932254791259766,1.0,1.0,8010.0,4005.0,1668050411.194891
238915939.0,0.00024561822647228837,0.0016564617399126291,0.0027555807027965784,0.06975439190864563,0.170119971036911,-9.759170532226562,0.0,0.0,32.933292388916016,1.0,1.0,8010.0,4005.0,1668050411.23496
238956090.0,-0.0011689318343997002,0.0035659847781062126,-0.002963956678286195,0.16090074181556702,-0.03262067586183548,-9.887606620788574,0.0,0.0,32.93488693237305,1.0,1.0,8010.0,4005.0,1668050411.275111
238996598.0,0.003051339415833354,-0.003218038473278284,-0.0034065027721226215,0.24658316373825073,-0.011991824023425579,-10.0005464553833,0.0,0.0,32.936912536621094,1.0,1.0,8010.0,4005.0,1668050411.315619
239035829.0,0.003580959513783455,-0.0033876365050673485,0.0007641768897883594,0.054583288729190826,0.021937843412160873,-9.707830429077148,0.0,0.0,32.938880920410156,1.0,1.0,8010.0,4005.0,1668050411.35485
239076587.0,-0.001996526960283518,-0.0014575114473700523,0.003731261705979705,-0.07221526652574539,0.08135849237442017,-9.736289978027344,0.0,0.0,32.940006256103516,1.0,1.0,8010.0,4005.0,1668050411.395608
239116014.0,0.0007943033124320209,-0.00298065016977489,-0.0027289721183478832,0.14671581983566284,-0.014673006720840931,-9.887311935424805,0.0,0.0,32.941768646240234,1.0,1.0,8010.0,4005.0,1668050411.435035
239156079.0,0.006891798228025436,-0.00132440694142133,-0.007147184573113918,0.10159613192081451,-0.11279312521219254,-9.709918975830078,0.0,0.0,32.94341278076172,1.0,1.0,8010.0,4005.0,1668050411.4751
239196294.0,0.0015624812804162502,-0.0007072438020259142,-0.002211101120337844,0.05101209133863449,-0.009934444911777973,-9.971694946289062,0.0,0.0,32.9450798034668,1.0,1.0,8010.0,4005.0,1668050411.515315
239235838.0,-0.004495453089475632,0.00037692702608183026,0.0018407050520181656,0.016295909881591797,0.029543856158852577,-9.965299606323242,0.0,0.0,32.946720123291016,1.0,1.0,8010.0,4005.0,1668050411.554859
239276372.0,-0.0002802863600663841,0.0020416227634996176,0.0007490536663681269,0.14891384541988373,0.10171627253293991,-9.59029483795166,0.0,0.0,32.948062896728516,1.0,1.0,8010.0,4005.0,1668050411.595393
239315971.0,0.00522935576736927,-0.0009063554462045431,-0.0012759458040818572,0.2173008918762207,0.03481556847691536,-9.794679641723633,0.0,0.0,32.94956588745117,1.0,1.0,8010.0,4005.0,1668050411.634992
239356001.0,0.00525228027254343,-0.00373579328879714,-0.003497879719361663,0.1346445530653,-0.13692203164100647,-9.775550842285156,0.0,0.0,32.95042037963867,1.0,1.0,8010.0,4005.0,1668050411.675022
239396384.0,0.00016150061856023967,-0.00765277910977602,-0.001964875031262636,0.03605270758271217,-0.06246788799762726,-9.968339920043945,0.0,0.0,32.95082473754883,1.0,1.0,8010.0,4005.0,1668050411.715405
239435859.0,-0.0034833792597055435,-0.002788000740110874,0.0006176573224365711,-0.08871997892856598,0.07842648029327393,-9.96721076965332,0.0,0.0,32.95159149169922,1.0,1.0,8010.0,4005.0,1668050411.75488
239476044.0,-0.00044001132482662797,0.0026329425163567066,0.0010128832655027509,-0.008057641796767712,0.113137386739254,-9.620877265930176,0.0,0.0,32.95217514038086,1.0,1.0,8010.0,4005.0,1668050411.795065
239515840.0,0.004777636379003525,0.0032042688690125942,-0.003060976741835475,0.14646220207214355,0.07161145657300949,-9.713981628417969,0.0,0.0,32.95189666748047,1.0,1.0,8010.0,4005.0,1668050411.834861
239556021.0,0.004691357724368572,0.001931887585669756,-0.0058828373439610004,0.2172766774892807,-0.10074854642152786,-9.955509185791016,0.0,0.0,32.952213287353516,1.0,1.0,8010.0,4005.0,1668050411.875042
239596441.0,0.0008528372854925692,-0.002448317129164934,-0.004390150308609009,0.19917525351047516,-0.06934510916471481,-9.838542938232422,0.0,0.0,32.953369140625,1.0,1.0,8010.0,4005.0,1668050411.915462
239635936.0,-0.002381531987339258,-0.006928788032382727,0.0020109773613512516,0.10099616646766663,0.006474963389337063,-9.936262130737305,0.0,0.0,32.954654693603516,1.0,1.0,8010.0,4005.0,1668050411.954957
239676125.0,-0.0016784723848104477,-0.002826017327606678,0.004823599010705948,-0.08874396234750748,0.1902824342250824,-9.814023971557617,0.0,0.0,32.95541000366211,1.0,1.0,8010.0,4005.0,1668050411.995146
239716064.0,0.0023014575708657503,-0.0004573096230160445,0.002615065313875675,-0.0062946537509560585,0.13877150416374207,-9.582477569580078,0.0,0.0,32.956382751464844,1.0,1.0,8010.0,4005.0,1668050412.035085
239755813.0,0.006086691748350859,-0.00012010781210847199,-0.001993025653064251,0.09274265170097351,-0.1329692304134369,-9.80622386932373,0.0,0.0,32.95742416381836,1.0,1.0,8010.0,4005.0,1668050412.0748339
239796400.0,0.004657934885472059,0.0034575785975903273,-0.00854106992483139,0.16054727137088776,-0.15128272771835327,-9.98603343963623,0.0,0.0,32.9586181640625,1.0,1.0,8010.0,4005.0,1668050412.115421
239835975.0,-0.0010180065874010324,-0.0008570902864448726,-0.010163335129618645,0.15624099969863892,-0.07981231063604355,-9.854782104492188,0.0,0.0,32.96040344238281,1.0,1.0,8010.0,4005.0,1668050412.154996
239876129.0,-0.004609392955899239,-0.004139792639762163,-0.0027943947352468967,0.1422957479953766,0.09538771957159042,-9.944883346557617,0.0,0.0,32.96177291870117,1.0,1.0,8010.0,4005.0,1668050412.19515
239915915.0,-0.0016342310700565577,-0.0010343709727749228,0.005460415501147509,-0.03580767288804054,0.22242605686187744,-9.696802139282227,0.0,0.0,32.96277618408203,1.0,1.0,8010.0,4005.0,1668050412.234936
239955951.0,0.003732939250767231,-0.0031481883488595486,0.009733010083436966,0.004683388397097588,0.06420807540416718,-9.659032821655273,0.0,0.0,32.96366882324219,1.0,1.0,8010.0,4005.0,1668050412.274972
239996666.0,0.006056458689272404,-0.001656009117141366,0.006646071560680866,0.06297175586223602,-0.07214370369911194,-9.961745262145996,0.0,0.0,32.96469497680664,1.0,1.0,8010.0,4005.0,1668050412.315687
240035989.0,0.002807654906064272,0.003515798831358552,-0.004634912125766277,0.08474113047122955,-0.14311407506465912,-9.932432174682617,0.0,0.0,32.965728759765625,1.0,1.0,8010.0,4005.0,1668050412.35501
240076251.0,-0.0010977303609251976,-0.00027558449073694646,-0.013050468638539314,0.19028109312057495,-0.08080685138702393,-9.800433158874512,0.0,0.0,32.966102600097656,1.0,1.0,8010.0,4005.0,1668050412.395272
240115908.0,-0.0024445271119475365,-0.0022790529765188694,-0.014147594571113586,0.12832286953926086,0.12676957249641418,-9.812674522399902,0.0,0.0,32.96567916870117,1.0,1.0,8010.0,4005.0,1668050412.434929
240156024.0,0.00016194175987038761,-0.0015087026404216886,-0.005798524711281061,0.0650176852941513,0.16165180504322052,-9.707274436950684,0.0,0.0,32.96548080444336,1.0,1.0,8010.0,4005.0,1668050412.475045
240196351.0,0.003939206711947918,-0.004200715571641922,0.0054979482665658,0.04979719594120979,0.04592785984277725,-9.888803482055664,0.0,0.0,32.965396881103516,1.0,1.0,8010.0,4005.0,1668050412.515372
240235828.0,0.004662130959331989,-0.0037151528522372246,0.01186605729162693,0.047289617359638214,-0.0964844673871994,-9.960662841796875,0.0,0.0,32.966156005859375,1.0,1.0,8010.0,4005.0,1668050412.554849
240276081.0,0.0010833601700142026,0.0013955706963315606,0.010034224018454552,0.0131315216422081,-0.10413408279418945,-9.8294677734375,0.0,0.0,32.96692657470703,1.0,1.0,8010.0,4005.0,1668050412.595102
240315906.0,-0.0026070463936775923,0.0003236851189285517,0.0011618246790021658,0.08821593970060349,-0.015808500349521637,-9.763976097106934,0.0,0.0,32.96768569946289,1.0,1.0,8010.0,4005.0,1668050412.634927
240356129.0,-0.002063958439975977,0.0012739697704091668,-0.007856283336877823,0.1229335218667984,0.07454909384250641,-9.785192489624023,0.0,0.0,32.96875762939453,1.0,1.0,8010.0,4005.0,1668050412.67515
240396448.0,0.0019193367334082723,0.0005361643270589411,-0.012614424340426922,0.1374277025461197,0.09392683953046799,-9.785861015319824,0.0,0.0,32.96964645385742,1.0,1.0,8010.0,4005.0,1668050412.715469
240435948.0,0.004213102161884308,-0.0036345580592751503,-0.010407628491520882,0.1329190731048584,0.042271584272384644,-9.919032096862793,0.0,0.0,32.97108459472656,1.0,1.0,8010.0,4005.0,1668050412.754969
240476109.0,0.004320352338254452,-0.0033599103335291147,-0.0024351822212338448,0.10366903245449066,-0.0339377336204052,-9.903928756713867,0.0,0.0,32.97248077392578,1.0,1.0,8010.0,4005.0,1668050412.79513
240515881.0,0.0010221952106803656,-0.0015892540104687214,0.004359048325568438,0.0009664546814747155,-0.0485667884349823,-9.754091262817383,0.0,0.0,32.97265625,1.0,1.0,8010.0,4005.0,1668050412.834902
240556085.0,-0.0007867737440392375,-0.002594240941107273,0.007981882430613041,0.024670753628015518,0.004748399369418621,-9.786136627197266,0.0,0.0,32.972412109375,1.0,1.0,8010.0,4005.0,1668050412.875106
240596251.0,-0.0008642468601465225,0.00019847744260914624,0.0057732053101062775,0.058542974293231964,0.05143454670906067,-9.816740989685059,0.0,0.0,32.97309875488281,1.0,1.0,8010.0,4005.0,1668050412.915272
240635922.0,0.0008356040343642235,0.001517371740192175,-0.0002839270746335387,0.12110726535320282,0.04788993299007416,-9.91319465637207,0.0,0.0,32.97382354736328,1.0,1.0,8010.0,4005.0,1668050412.954943
240676320.0,0.0031632035970687866,-0.0010373520199209452,-0.006722192279994488,0.1540994495153427,-0.005868486128747463,-9.873617172241211,0.0,0.0,32.974361419677734,1.0,1.0,8010.0,4005.0,1668050412.995341
240716347.0,0.003138566855341196,-0.0017785055097192526,-0.009818649850785732,0.1330857127904892,-0.017746882513165474,-9.79294204711914,0.0,0.0,32.9752082824707,1.0,1.0,8010.0,4005.0,1668050413.035368
240756083.0,0.0016844009514898062,-0.002762424061074853,-0.006774939596652985,0.05544949322938919,-0.010660912841558456,-9.7203950881958,0.0,0.0,32.97645568847656,1.0,1.0,8010.0,4005.0,1668050413.075104
240796558.0,0.00025229479069821537,-0.00446504820138216,-0.0010128261055797338,0.04105705767869949,0.021982550621032715,-9.852177619934082,0.0,0.0,32.97760772705078,1.0,1.0,8010.0,4005.0,1668050413.115579
240835923.0,-0.00018302637909073383,-0.0017538099782541394,0.004689094144850969,0.027731172740459442,0.04256546497344971,-9.912237167358398,0.0,0.0,32.97859573364258,1.0,1.0,8010.0,4005.0,1668050413.154944
240875879.0,0.0008158742566592991,0.00046175526222214103,0.00675269216299057,0.05315368250012398,0.030326513573527336,-9.916179656982422,0.0,0.0,32.97887420654297,1.0,1.0,8010.0,4005.0,1668050413.1949
240915894.0,0.0012961175525560975,0.0007544949767179787,0.003938094712793827,0.09073371440172195,-0.01480143517255783,-9.769192695617676,0.0,0.0,32.978843688964844,1.0,1.0,8010.0,4005.0,1668050413.234915
240956211.0,0.0015841552522033453,0.0008832758176140487,-0.002532491460442543,0.13742640614509583,-0.029443373903632164,-9.749698638916016,0.0,0.0,32.97880172729492,1.0,1.0,8010.0,4005.0,1668050413.275232
240996710.0,0.0013223813148215413,-0.0008896361687220633,-0.008215632289648056,0.1253335177898407,-0.030191004276275635,-9.760172843933105,0.0,0.0,32.978843688964844,1.0,1.0,8010.0,4005.0,1668050413.315731
241035979.0,0.0006366287707351148,-0.003332772757858038,-0.008486415259540081,0.11426060646772385,0.02813054993748665,-9.88323974609375,0.0,0.0,32.97943115234375,1.0,1.0,8010.0,4005.0,1668050413.355
241076258.0,0.0011757081374526024,-0.003131980774924159,-0.00433595385402441,0.04567914456129074,0.039246816188097,-9.920608520507812,0.0,0.0,32.98072814941406,1.0,1.0,8010.0,4005.0,1668050413.395279
241115934.0,0.0011180315632373095,-0.002024177461862564,0.0013294448144733906,0.009789450094103813,0.03379116207361221,-9.843877792358398,0.0,0.0,32.98213195800781,1.0,1.0,8010.0,4005.0,1668050413.434955
241155926.0,0.0016371931415051222,-0.0012772285845130682,0.005403474438935518,0.0457458570599556,0.007088126614689827,-9.756219863891602,0.0,0.0,32.98332214355469,1.0,1.0,8010.0,4005.0,1668050413.474947
241196268.0,0.0014407847775146365,0.0007722613518126309,0.004769365768879652,0.09492652863264084,-0.047580718994140625,-9.754644393920898,0.0,0.0,32.984622955322266,1.0,1.0,8010.0,4005.0,1668050413.515289
241235857.0,0.0005107121542096138,-0.0002546485047787428,0.0006423136219382286,0.1290525197982788,-0.009667285718023777,-9.860363960266113,0.0,0.0,32.98600387573242,1.0,1.0,8010.0,4005.0,1668050413.554878
241276221.0,0.00033671408891677856,-0.0012097192229703069,-0.004086497239768505,0.13880278170108795,0.015528455376625061,-9.8726806640625,0.0,0.0,32.98805236816406,1.0,1.0,8010.0,4005.0,1668050413.595242
241315987.0,0.0011879740050062537,-0.002324767177924514,-0.007048385217785835,0.0950002372264862,0.041716523468494415,-9.868856430053711,0.0,0.0,32.98980712890625,1.0,1.0,8010.0,4005.0,1668050413.635008
241355850.0,0.002084397943690419,-0.0024229083210229874,-0.006134372670203447,0.04619655758142471,0.01747504621744156,-9.770305633544922,0.0,0.0,32.99154281616211,1.0,1.0,8010.0,4005.0,1668050413.674871
241396403.0,0.0025078263133764267,-0.002631738316267729,-0.0018027882324531674,0.05385250225663185,0.0017823065863922238,-9.809944152832031,0.0,0.0,32.99345016479492,1.0,1.0,8010.0,4005.0,1668050413.715424
241435863.0,0.0014488936867564917,-0.0006014971295371652,0.002226196927949786,0.03693188726902008,-0.03148987516760826,-9.82978343963623,0.0,0.0,32.99551010131836,1.0,1.0,8010.0,4005.0,1668050413.754884
241476232.0,7.833157724235207e-05,-0.00028063548961654305,0.0036804848350584507,0.10699838399887085,-0.010966403409838676,-9.897601127624512,0.0,0.0,32.9972038269043,1.0,1.0,8010.0,4005.0,1668050413.795253
241515858.0,-0.00036898491089232266,0.0004829240497201681,0.002343061612918973,0.09460426867008209,0.03943479806184769,-9.827592849731445,0.0,0.0,32.999183654785156,1.0,1.0,8010.0,4005.0,1668050413.834879
241556184.0,0.00066800118656829,-0.0005158029380254447,-0.0012360686669126153,0.12152189016342163,0.030905166640877724,-9.824185371398926,0.0,0.0,33.000953674316406,1.0,1.0,8010.0,4005.0,1668050413.875205
241596521.0,0.0023654471151530743,-0.0019859340973198414,-0.0045715500600636005,0.0703597366809845,0.010273978114128113,-9.759634971618652,0.0,0.0,33.00246047973633,1.0,1.0,8010.0,4005.0,1668050413.915542
241635886.0,0.0031818398274481297,-0.003116822335869074,-0.006081185303628445,0.102765291929245,-0.0033965439070016146,-9.839357376098633,0.0,0.0,33.00399398803711,1.0,1.0,8010.0,4005.0,1668050413.954907
241676222.0,0.0016877626767382026,-0.002239375375211239,-0.004466497339308262,0.0415676012635231,-0.02192581072449684,-9.889930725097656,0.0,0.0,33.00529861450195,1.0,1.0,8010.0,4005.0,1668050413.995243
241716087.0,0.0005571629153564572,-0.0012942306930199265,-0.0015433935914188623,0.08094250410795212,0.008297842927277088,-9.864893913269043,0.0,0.0,33.006439208984375,1.0,1.0,8010.0,4005.0,1668050414.035108
241755874.0,0.00010569280857453123,-0.0006251015583984554,0.0019119014032185078,0.03843173012137413,0.043184712529182434,-9.788816452026367,0.0,0.0,33.00660705566406,1.0,1.0,8010.0,4005.0,1668050414.074895
241796573.0,0.001075669890269637,6.930297968210652e-05,0.0030925890896469355,0.10394767671823502,0.030101720243692398,-9.805441856384277,0.0,0.0,33.00645065307617,1.0,1.0,8010.0,4005.0,1668050414.115594
241835975.0,0.0019024335779249668,-0.0005925276200287044,0.0013891889248043299,0.08606088161468506,-0.005003905855119228,-9.812304496765137,0.0,0.0,33.006561279296875,1.0,1.0,8010.0,4005.0,1668050414.154996
241876232.0,0.0018499429570510983,-0.0017175449756905437,-0.002295557176694274,0.1203204020857811,-0.02298787236213684,-9.867905616760254,0.0,0.0,33.00688552856445,1.0,1.0,8010.0,4005.0,1668050414.195253
241915920.0,0.0015379819087684155,-0.0016520575154572725,-0.004458011128008366,0.07774639129638672,0.007699493318796158,-9.898401260375977,0.0,0.0,33.00785827636719,1.0,1.0,8010.0,4005.0,1668050414.234941
241956185.0,0.0005223271436989307,-0.0016092683654278517,-0.005493193864822388,0.06793566048145294,0.011932557448744774,-9.806035995483398,0.0,0.0,33.00986862182617,1.0,1.0,8010.0,4005.0,1668050414.275206
241996739.0,0.0008065986912697554,-0.0020015924237668514,-0.003051373641937971,0.058446742594242096,0.04588871821761131,-9.807045936584473,0.0,0.0,33.01142883300781,1.0,1.0,8010.0,4005.0,1668050414.31576
242035838.0,0.0014623377937823534,-0.0005763706285506487,0.00028825047775171697,0.0702793151140213,0.023034315556287766,-9.798934936523438,0.0,0.0,33.01250076293945,1.0,1.0,8010.0,4005.0,1668050414.3548589
242076161.0,0.001676632440648973,-0.0010729542700573802,0.002274921163916588,0.09061870723962784,-0.010233180597424507,-9.867757797241211,0.0,0.0,33.01308059692383,1.0,1.0,8010.0,4005.0,1668050414.395182
242115887.0,0.0009540067985653877,-0.0003417634288780391,0.0021206513047218323,0.09790077805519104,-0.007707775570452213,-9.863812446594238,0.0,0.0,33.01344299316406,1.0,1.0,8010.0,4005.0,1668050414.434908
242156013.0,0.000593573204241693,-0.0013274844968691468,-0.00028126483084633946,0.10147438198328018,0.005692250560969114,-9.852022171020508,0.0,0.0,33.013893127441406,1.0,1.0,8010.0,4005.0,1668050414.475034
242196438.0,0.0012879151618108153,-0.001814808463677764,-0.003551980247721076,0.07493342459201813,0.02040049433708191,-9.766191482543945,0.0,0.0,33.01297378540039,1.0,1.0,8010.0,4005.0,1668050414.515459
242235820.0,0.001773318974301219,-0.0024112449027597904,-0.0047833798453211784,0.0925709679722786,0.02920595183968544,-9.830923080444336,0.0,0.0,33.01200485229492,1.0,1.0,8010.0,4005.0,1668050414.554841
242276211.0,0.0021921524312347174,-0.001468478236347437,-0.0037526246160268784,0.04627469182014465,0.009790441021323204,-9.833465576171875,0.0,0.0,33.0108757019043,1.0,1.0,8010.0,4005.0,1668050414.595232
242315971.0,0.0020666904747486115,-0.0020038634538650513,-0.001531714340671897,0.10066264867782593,-0.016154084354639053,-9.87944221496582,0.0,0.0,33.01051712036133,1.0,1.0,8010.0,4005.0,1668050414.634992
242355860.0,0.000977667048573494,-0.0010866392403841019,0.00043496533180586994,0.05296642705798149,-0.0002939630940090865,-9.816720008850098,0.0,0.0,33.01176071166992,1.0,1.0,8010.0,4005.0,1668050414.674881
242396396.0,0.0005084143485873938,-0.0005955864326097071,0.0015313572948798537,0.09380752593278885,0.021137118339538574,-9.810161590576172,0.0,0.0,33.013607025146484,1.0,1.0,8010.0,4005.0,1668050414.715417
242435916.0,0.0009807159658521414,-0.0002325881359865889,0.0010932906297966838,0.06354301422834396,0.027491290122270584,-9.769771575927734,0.0,0.0,33.01462936401367,1.0,1.0,8010.0,4005.0,1668050414.754937
242476205.0,0.0016847060760483146,-0.0011557143880054355,-0.0010560016380622983,0.10309827327728271,0.0016472643474116921,-9.858784675598145,0.0,0.0,33.01531982421875,1.0,1.0,8010.0,4005.0,1668050414.795226
242515895.0,0.0022595301270484924,-0.00136496068444103,-0.00347219523973763,0.0788954421877861,-0.00810601282864809,-9.875510215759277,0.0,0.0,33.01617431640625,1.0,1.0,8010.0,4005.0,1668050414.8349159
242556205.0,0.0022244653664529324,-0.0018095055129379034,-0.004709741100668907,0.0868934839963913,-0.006091425195336342,-9.827203750610352,0.0,0.0,33.01762390136719,1.0,1.0,8010.0,4005.0,1668050414.875226
242596243.0,0.0013997575733810663,-0.0016100438078865409,-0.0033154860138893127,0.04912373051047325,0.023397449404001236,-9.80089282989502,0.0,0.0,33.019046783447266,1.0,1.0,8010.0,4005.0,1668050414.915264
242635881.0,0.001125737209804356,-0.0003170228737872094,-0.0006362793501466513,0.0762559324502945,0.00694650923833251,-9.792777061462402,0.0,0.0,33.02088165283203,1.0,1.0,8010.0,4005.0,1668050414.954902
242676261.0,0.001457864884287119,-0.0015590209513902664,0.0013723750598728657,0.07209598273038864,0.008440989069640636,-9.849372863769531,0.0,0.0,33.022525787353516,1.0,1.0,8010.0,4005.0,1668050414.995282
242716227.0,0.0010087060509249568,-0.0005702117923647165,0.0011402182281017303,0.10717950016260147,0.005949963815510273,-9.863438606262207,0.0,0.0,33.023712158203125,1.0,1.0,8010.0,4005.0,1668050415.035248
242755859.0,0.0012618291657418013,-0.000966404564678669,-0.0007956831832416356,0.09526566416025162,-0.008515492081642151,-9.869708061218262,0.0,0.0,33.02369689941406,1.0,1.0,8010.0,4005.0,1668050415.07488
242796733.0,0.0009009765926748514,-0.0011482774280011654,-0.0030900866258889437,0.08189657330513,-0.008377868682146072,-9.786520004272461,0.0,0.0,33.02445602416992,1.0,1.0,8010.0,4005.0,1668050415.115754
242835991.0,0.0011772194411605597,-0.0018750072922557592,-0.0036988859064877033,0.0778718814253807,0.01146223209798336,-9.80199909210205,0.0,0.0,33.026214599609375,1.0,1.0,8010.0,4005.0,1668050415.155012
242875973.0,0.0015625215601176023,-0.0012588829267770052,-0.003566891420632601,0.04443151503801346,0.009389519691467285,-9.811113357543945,0.0,0.0,33.02771759033203,1.0,1.0,8010.0,4005.0,1668050415.194994
242915974.0,0.0011590151116251945,-0.0019500392954796553,-0.0022454559803009033,0.07857012748718262,0.01007202547043562,-9.889530181884766,0.0,0.0,33.02890396118164,1.0,1.0,8010.0,4005.0,1668050415.234995
242955811.0,0.001477684243582189,-0.0008800799841992557,-5.58982283109799e-05,0.07347631454467773,0.005571438930928707,-9.845112800598145,0.0,0.0,33.0297737121582,1.0,1.0,8010.0,4005.0,1668050415.274832
242996617.0,0.0013722677249461412,-0.0005374271422624588,0.0013669166946783662,0.09999121725559235,0.012663333676755428,-9.832021713256836,0.0,0.0,33.03045654296875,1.0,1.0,8010.0,4005.0,1668050415.315638
243035911.0,0.0012801678385585546,-0.0009501926833763719,0.000609187176451087,0.06769555807113647,0.015083860605955124,-9.789695739746094,0.0,0.0,33.030460357666016,1.0,1.0,8010.0,4005.0,1668050415.354932
243076366.0,0.0015804374124854803,-0.0015694142784923315,-0.0012208590051159263,0.10873875766992569,-0.0036018516402691603,-9.810318946838379,0.0,0.0,33.030517578125,1.0,1.0,8010.0,4005.0,1668050415.395387
243115833.0,0.0018300169613212347,-0.0017599023412913084,-0.0028790736105293036,0.06282387673854828,0.012206957675516605,-9.83340072631836,0.0,0.0,33.030460357666016,1.0,1.0,8010.0,4005.0,1668050415.434854
243155813.0,0.0014831684529781342,-0.0022014020942151546,-0.0034482155460864305,0.08933426439762115,0.018438715487718582,-9.867033004760742,0.0,0.0,33.03049850463867,1.0,1.0,8010.0,4005.0,1668050415.474834
243196382.0,0.0012377614621073008,-0.0014465150889009237,-0.0030133628752082586,0.049346923828125,0.009314281865954399,-9.841050148010254,0.0,0.0,33.03032302856445,1.0,1.0,8010.0,4005.0,1668050415.515403
243235865.0,0.001157976221293211,-0.0011703495401889086,-0.0011991788633167744,0.08273280411958694,0.005473692901432514,-9.800932884216309,0.0,0.0,33.0297966003418,1.0,1.0,8010.0,4005.0,1668050415.554886
243276433.0,0.000910180329810828,-0.000837179715745151,0.000540080654900521,0.07424630224704742,0.02519926056265831,-9.81615161895752,0.0,0.0,33.03069305419922,1.0,1.0,8010.0,4005.0,1668050415.595454
243315822.0,0.0013287327019497752,-0.0009751775651238859,0.0007353463442996144,0.10852864384651184,0.01306071411818266,-9.842056274414062,0.0,0.0,33.03147888183594,1.0,1.0,8010.0,4005.0,1668050415.6348429
243355810.0,0.0013022349448874593,-0.0010148974834010005,5.4190320952329785e-05,0.07237687706947327,0.009048782289028168,-9.84058666229248,0.0,0.0,33.03236770629883,1.0,1.0,8010.0,4005.0,1668050415.674831
243396575.0,0.0015010694041848183,-0.0013838603626936674,-0.0014236486749723554,0.09022323787212372,0.013791967183351517,-9.831501007080078,0.0,0.0,33.0333366394043,1.0,1.0,8010.0,4005.0,1668050415.715596
246435865.0,0.0014137604739516973,0.0001727020280668512,0.005088205449283123,-0.08957434445619583,0.10132776945829391,-9.724798202514648,0.0,0.0,33.10723114013672,1.0,1.0,8010.0,4005.0,1668050418.754886
246476346.0,0.0004974824259988964,-0.003966067917644978,-2.0094412320759147e-05,0.04644313454627991,0.05805070698261261,-9.808436393737793,0.0,0.0,33.107887268066406,1.0,1.0,8010.0,4005.0,1668050418.795367
246527694.0,0.0012895859545096755,0.0023891308810561895,-0.0032370658591389656,0.19387869536876678,0.012076900340616703,-9.716611862182617,0.0,0.0,33.10926818847656,1.0,1.0,8010.0,4005.0,1668050418.846715
246568007.0,0.0024727003183215857,-0.0003025574260391295,0.00036459063994698226,-0.08192621171474457,0.017343800514936447,-9.938188552856445,0.0,0.0,33.1107292175293,1.0,1.0,8010.0,4005.0,1668050418.887028
246608396.0,-3.8883583329152316e-05,-0.0028166398406028748,-0.008357762359082699,0.23696959018707275,-0.06147743761539459,-10.006637573242188,0.0,0.0,33.111751556396484,1.0,1.0,8010.0,4005.0,1668050418.927417
246647764.0,0.0005309119005687535,0.0013344394974410534,-0.0018555021379143,0.19309230148792267,0.07972462475299835,-9.698915481567383,0.0,0.0,33.112274169921875,1.0,1.0,8010.0,4005.0,1668050418.966785
246687795.0,0.0008075544028542936,-0.003928398247808218,0.0036942947190254927,-0.016429102048277855,0.05285142362117767,-9.719282150268555,0.0,0.0,33.11237716674805,1.0,1.0,8010.0,4005.0,1668050419.006816
246727776.0,0.0016830719541758299,-0.003755418583750725,-0.0014496366493403912,0.04832154139876366,-0.052187852561473846,-9.739036560058594,0.0,0.0,33.112266540527344,1.0,1.0,8010.0,4005.0,1668050419.046797
246767852.0,0.0022658894304186106,0.0020571809727698565,-0.0003486949426587671,0.09636399894952774,-0.004281254485249519,-9.80569076538086,0.0,0.0,33.1123161315918,1.0,1.0,8010.0,4005.0,1668050419.086873
246808451.0,0.00012476471601985395,-0.00044616340892389417,0.001787354820407927,-0.006979960482567549,0.03974240645766258,-10.023920059204102,0.0,0.0,33.11198806762695,1.0,1.0,8010.0,4005.0,1668050419.127472
246847709.0,0.0015263925306499004,-0.0016322454903274775,-0.003381327260285616,0.08493337035179138,0.01837127096951008,-9.952476501464844,0.0,0.0,33.111732482910156,1.0,1.0,8010.0,4005.0,1668050419.16673
246887730.0,0.00042186956852674484,0.0038058804348111153,-0.007698644883930683,0.17174787819385529,0.006104186177253723,-9.772482872009277,0.0,0.0,33.11228942871094,1.0,1.0,8010.0,4005.0,1668050419.2067509
246927788.0,-0.0002677392621990293,-0.0014150876086205244,-0.00182488898281008,0.16533781588077545,0.12381180375814438,-9.622300148010254,0.0,0.0,33.11383819580078,1.0,1.0,8010.0,4005.0,1668050419.246809
246968085.0,0.0028984330128878355,-0.006594592705368996,0.003045426681637764,0.047687023878097534,0.014804847538471222,-9.713319778442383,0.0,0.0,33.11552047729492,1.0,1.0,8010.0,4005.0,1668050419.287106
247008746.0,0.0032444726675748825,-0.002278110245242715,-0.0013565362896770239,-0.012602999806404114,-0.08248366415500641,-9.910971641540527,0.0,0.0,33.11772918701172,1.0,1.0,8010.0,4005.0,1668050419.327767
247047692.0,0.0004884687368758023,-2.105368548654951e-05,-0.0026672789826989174,0.006412716582417488,-0.034707482904195786,-9.960466384887695,0.0,0.0,33.119659423828125,1.0,1.0,8010.0,4005.0,1668050419.366713
247087784.0,-0.0018830682383850217,-0.0016361218877136707,-0.0009655547328293324,0.11352507770061493,0.08049686253070831,-9.899763107299805,0.0,0.0,33.12133026123047,1.0,1.0,8010.0,4005.0,1668050419.406805
247127830.0,-0.0002127007464878261,0.0021808426827192307,3.825960448011756e-05,0.02887933887541294,0.08044984936714172,-9.723221778869629,0.0,0.0,33.1231689453125,1.0,1.0,8010.0,4005.0,1668050419.446851
247167979.0,0.0032622304279357195,0.0002555242972448468,-0.002003282308578491,0.11107663810253143,0.05296271666884422,-9.681952476501465,0.0,0.0,33.123748779296875,1.0,1.0,8010.0,4005.0,1668050419.487
247208375.0,0.003178094979375601,-0.0026902847457677126,-0.004183650948107243,0.1653602421283722,-0.12668342888355255,-9.881775856018066,0.0,0.0,33.123783111572266,1.0,1.0,8010.0,4005.0,1668050419.527396
247247684.0,0.0004649651236832142,-0.0019098472548648715,-0.003155085491016507,0.14158055186271667,0.004979229997843504,-9.927009582519531,0.0,0.0,33.12376022338867,1.0,1.0,8010.0,4005.0,1668050419.566705
247287773.0,-0.000257752719335258,-0.004272136837244034,0.0002660811005625874,0.06712670624256134,0.10922442376613617,-9.842254638671875,0.0,0.0,33.123634338378906,1.0,1.0,8010.0,4005.0,1668050419.6067939
247327813.0,0.00040659826481714845,-0.003095978870987892,0.0026601192075759172,-0.052519459277391434,0.0039057843387126923,-9.787359237670898,0.0,0.0,33.124237060546875,1.0,1.0,8010.0,4005.0,1668050419.646834
247368063.0,0.0022647585719823837,0.000872775970492512,-0.00012686214176937938,-0.007980460301041603,-0.014782180078327656,-9.749136924743652,0.0,0.0,33.12468338012695,1.0,1.0,8010.0,4005.0,1668050419.687084
247408294.0,0.0026710708625614643,0.0015334321651607752,-0.004457531031221151,0.08101936429738998,-0.03244395926594734,-9.828977584838867,0.0,0.0,33.124969482421875,1.0,1.0,8010.0,4005.0,1668050419.727315
247447712.0,0.00031158167985267937,0.0007272628135979176,-0.0044503118842840195,0.2125440537929535,-0.043265894055366516,-9.924589157104492,0.0,0.0,33.124267578125,1.0,1.0,8010.0,4005.0,1668050419.766733
247487810.0,-0.001266799052245915,9.773926285561174e-05,-0.0017862332751974463,0.18933366239070892,0.03907404839992523,-9.862821578979492,0.0,0.0,33.124027252197266,1.0,1.0,8010.0,4005.0,1668050419.806831
247527878.0,0.000678167911246419,-0.004794919863343239,0.0014580665156245232,0.10693937540054321,0.08452700823545456,-9.838906288146973,0.0,0.0,33.1241569519043,1.0,1.0,8010.0,4005.0,1668050419.846899
247568096.0,0.0033496757969260216,-0.005620842333883047,0.0008650490781292319,0.013332708738744259,-0.019276492297649384,-9.72215461730957,0.0,0.0,33.12405776977539,1.0,1.0,8010.0,4005.0,1668050419.887117
247608489.0,0.003243420273065567,-0.0018545642960816622,-0.0015788971213623881,-0.055847544223070145,-0.06966869533061981,-9.77748966217041,0.0,0.0,33.12479782104492,1.0,1.0,8010.0,4005.0,1668050419.92751
247647825.0,0.0016197694931179285,0.0008155264658853412,-0.004234379157423973,0.04777812957763672,-0.026292838156223297,-9.862275123596191,0.0,0.0,33.12646484375,1.0,1.0,8010.0,4005.0,1668050419.966846
247687873.0,-0.0008295169100165367,0.00179633020889014,-0.004712311550974846,0.10349605977535248,-0.039905890822410583,-9.93665599822998,0.0,0.0,33.12806701660156,1.0,1.0,8010.0,4005.0,1668050420.0068939
247728001.0,-0.0012863618321716785,0.0019012163393199444,-0.001675162697210908,0.1510794758796692,0.1089281514286995,-9.842897415161133,0.0,0.0,33.130165100097656,1.0,1.0,8010.0,4005.0,1668050420.047022
247767684.0,0.0015918867429718375,-0.0011364779202267528,0.001868796651251614,0.18979553878307343,0.08578882366418839,-9.787118911743164,0.0,0.0,33.13203811645508,1.0,1.0,8010.0,4005.0,1668050420.086705
247808406.0,0.0038716483395546675,-0.0038995833601802588,0.0026347991079092026,0.07620100677013397,-0.03318282961845398,-9.737078666687012,0.0,0.0,33.13349914550781,1.0,1.0,8010.0,4005.0,1668050420.127427
247847801.0,0.004033589269965887,-0.004391164053231478,-0.00037446091300807893,0.017451589927077293,-0.0569755919277668,-9.846918106079102,0.0,0.0,33.13451385498047,1.0,1.0,8010.0,4005.0,1668050420.166822
247887743.0,0.0013399161398410797,-0.0025116358883678913,-0.005400427151471376,-0.011944599449634552,-0.05240172520279884,-9.887565612792969,0.0,0.0,33.13579559326172,1.0,1.0,8010.0,4005.0,1668050420.206764
247927698.0,-0.0017284923233091831,0.0007241592393256724,-0.006963314488530159,0.025975892320275307,0.03299790620803833,-9.885082244873047,0.0,0.0,33.13731002807617,1.0,1.0,8010.0,4005.0,1668050420.246719
247967853.0,-0.00039779150392860174,0.00250052846968174,-0.004145326092839241,0.08806519955396652,0.09376557916402817,-9.807305335998535,0.0,0.0,33.139278411865234,1.0,1.0,8010.0,4005.0,1668050420.286874
248008653.0,0.0016898962203413248,0.001562381279654801,0.0003746843140106648,0.163259357213974,0.06447123736143112,-9.78333568572998,0.0,0.0,33.14142608642578,1.0,1.0,8010.0,4005.0,1668050420.327674
248047908.0,0.0025142228696495295,-0.0011956649832427502,0.004652509931474924,0.17311391234397888,-0.005997665226459503,-9.798240661621094,0.0,0.0,33.143638610839844,1.0,1.0,8010.0,4005.0,1668050420.366929
248087816.0,0.0028242077678442,-0.0034514882136136293,0.004569304641336203,0.11596110463142395,-0.07296101003885269,-9.83089828491211,0.0,0.0,33.145606994628906,1.0,1.0,8010.0,4005.0,1668050420.406837
248127690.0,0.0005046143778599799,-0.005665123462677002,0.0005594278336502612,0.035513799637556076,-0.03218428045511246,-9.901227951049805,0.0,0.0,33.14662551879883,1.0,1.0,8010.0,4005.0,1668050420.446711
248167868.0,-0.00013237321400083601,-0.002876251470297575,-0.004513408523052931,-0.017579296603798866,0.021175049245357513,-9.825902938842773,0.0,0.0,33.147308349609375,1.0,1.0,8010.0,4005.0,1668050420.486889
248208389.0,0.0008836017805151641,1.8794908100971952e-05,-0.008082286454737186,0.0028912851121276617,0.04409414157271385,-9.786972045898438,0.0,0.0,33.14842987060547,1.0,1.0,8010.0,4005.0,1668050420.52741
248247741.0,0.001818945398554206,0.001989571610465646,-0.00662121269851923,0.07701756060123444,0.038534630089998245,-9.802070617675781,0.0,0.0,33.14927673339844,1.0,1.0,8010.0,4005.0,1668050420.566762
248287678.0,0.0022801943123340607,0.0010071953292936087,-0.0019883066415786743,0.16467778384685516,-0.0068556033074855804,-9.872062683105469,0.0,0.0,33.150054931640625,1.0,1.0,8010.0,4005.0,1668050420.606699
248327700.0,0.0012400951236486435,-0.0008267193334177136,0.0020220736041665077,0.17381396889686584,-0.030146239325404167,-9.815906524658203,0.0,0.0,33.15054702758789,1.0,1.0,8010.0,4005.0,1668050420.646721
248368469.0,0.00015884095046203583,-0.003845042083412409,0.003711212193593383,0.11005513370037079,0.013992751948535442,-9.862215995788574,0.0,0.0,33.15132141113281,1.0,1.0,8010.0,4005.0,1668050420.68749
248408498.0,0.00018629353144206107,-0.004309044685214758,0.0028412588872015476,0.01869216561317444,0.027703147381544113,-9.789348602294922,0.0,0.0,33.15139389038086,1.0,1.0,8010.0,4005.0,1668050420.727519
248447807.0,0.0015291725285351276,-0.003535184543579817,-0.0011909962631762028,0.006820896174758673,0.015895476564764977,-9.788567543029785,0.0,0.0,33.15168762207031,1.0,1.0,8010.0,4005.0,1668050420.766828
248487684.0,0.003027926664799452,-0.0008015286875888705,-0.004553225357085466,0.02572685107588768,0.010705975815653801,-9.876578330993652,0.0,0.0,33.15218734741211,1.0,1.0,8010.0,4005.0,1668050420.806705
248527667.0,0.001956793712452054,0.0011674226261675358,-0.006578631233423948,0.09290112555027008,-0.023347392678260803,-9.840564727783203,0.0,0.0,33.152591705322266,1.0,1.0,8010.0,4005.0,1668050420.846688
248568297.0,0.000644499552436173,0.0008577609551139176,-0.004862338304519653,0.1211194097995758,0.005548091605305672,-9.844435691833496,0.0,0.0,33.1529426574707,1.0,1.0,8010.0,4005.0,1668050420.887318
248608348.0,0.00015532744873780757,-0.0006772266351617873,-0.0010344567708671093,0.1543266475200653,0.03163088485598564,-9.822649955749512,0.0,0.0,33.15272521972656,1.0,1.0,8010.0,4005.0,1668050420.9273689
248647659.0,0.000831281126011163,-0.002833216916769743,0.002931268885731697,0.10528117418289185,0.04605058208107948,-9.790987968444824,0.0,0.0,33.15239334106445,1.0,1.0,8010.0,4005.0,1668050420.96668
248687662.0,0.0017289530951529741,-0.0037423367612063885,0.003838137723505497,0.07374616712331772,0.02892441488802433,-9.81301498413086,0.0,0.0,33.152408599853516,1.0,1.0,8010.0,4005.0,1668050421.0066829
248727785.0,0.0025847088545560837,-0.002791503444314003,0.0009547941153869033,0.014912663027644157,-0.019323937594890594,-9.879669189453125,0.0,0.0,33.15339660644531,1.0,1.0,8010.0,4005.0,1668050421.046806
248767765.0,0.0017105797305703163,-0.0011167698539793491,-0.003273178357630968,0.022158533334732056,-0.040433868765830994,-9.832197189331055,0.0,0.0,33.153785705566406,1.0,1.0,8010.0,4005.0,1668050421.086786
248808651.0,0.0006503851618617773,-0.00010276003740727901,-0.006134043447673321,0.05500160902738571,-0.007368173450231552,-9.854447364807129,0.0,0.0,33.15363311767578,1.0,1.0,8010.0,4005.0,1668050421.127672
248847671.0,0.00011457486834842712,0.0008411043672822416,-0.006182350683957338,0.11181819438934326,0.05690942704677582,-9.80654239654541,0.0,0.0,33.15415573120117,1.0,1.0,8010.0,4005.0,1668050421.166692
248887686.0,0.0003604708763305098,-2.0849744032602757e-05,-0.0027891090139746666,0.13130363821983337,0.02476133219897747,-9.795135498046875,0.0,0.0,33.153926849365234,1.0,1.0,8010.0,4005.0,1668050421.206707
248927774.0,0.002402186393737793,-0.002052746247500181,0.0012974595883861184,0.12821009755134583,0.03566907346248627,-9.830345153808594,0.0,0.0,33.15499496459961,1.0,1.0,8010.0,4005.0,1668050421.246795
248967985.0,0.002565914299339056,-0.0034649325534701347,0.0032281363382935524,0.11473125219345093,-0.013176129199564457,-9.907047271728516,0.0,0.0,33.15660858154297,1.0,1.0,8010.0,4005.0,1668050421.287006
249008442.0,0.001375959487631917,-0.0030727721750736237,0.0022840157616883516,0.045424968004226685,-0.027612822130322456,-9.810577392578125,0.0,0.0,33.15840530395508,1.0,1.0,8010.0,4005.0,1668050421.327463
249047695.0,0.0007535290205851197,-0.0021226443350315094,-0.0018919697031378746,0.03354281559586525,-0.001275286078453064,-9.82236099243164,0.0,0.0,33.15977096557617,1.0,1.0,8010.0,4005.0,1668050421.366716
249087755.0,0.0008319348562508821,0.00014257605653256178,-0.004822213668376207,0.027380649000406265,0.029421506449580193,-9.78736686706543,0.0,0.0,33.16038513183594,1.0,1.0,8010.0,4005.0,1668050421.406776
249127771.0,0.0016842465847730637,0.0006523467600345612,-0.005795438773930073,0.11217613518238068,0.012759772129356861,-9.796789169311523,0.0,0.0,33.16035461425781,1.0,1.0,8010.0,4005.0,1668050421.446792
249168058.0,0.001996730687096715,8.480186806991696e-05,-0.0039046963211148977,0.1120290458202362,0.001859284588135779,-9.910598754882812,0.0,0.0,33.161258697509766,1.0,1.0,8010.0,4005.0,1668050421.487079
249208292.0,0.0015574648277834058,-0.0002466263249516487,-0.0008652547840029001,0.16338692605495453,-0.015363441780209541,-9.851577758789062,0.0,0.0,33.162418365478516,1.0,1.0,8010.0,4005.0,1668050421.527313
249247697.0,0.0013007468078285456,-0.002319532446563244,0.0016431126277893782,0.08008258044719696,0.015076497569680214,-9.792792320251465,0.0,0.0,33.16307067871094,1.0,1.0,8010.0,4005.0,1668050421.566718
249288004.0,0.0006794120417907834,-0.003157163504511118,0.002498811576515436,0.0645403042435646,0.013037255965173244,-9.813770294189453,0.0,0.0,33.16377639770508,1.0,1.0,8010.0,4005.0,1668050421.607025
249327758.0,0.0016011231346055865,-0.0025015906430780888,0.0009055314585566521,0.013750358484685421,0.003720272798091173,-9.783655166625977,0.0,0.0,33.16531753540039,1.0,1.0,8010.0,4005.0,1668050421.646779
249368023.0,0.0021751439198851585,-0.0018565122736617923,-0.0025132084265351295,0.05271260067820549,-0.001973941456526518,-9.84819507598877,0.0,0.0,33.16692352294922,1.0,1.0,8010.0,4005.0,1668050421.687044
249408640.0,0.0014482258120551705,-0.00011793219891842455,-0.004525948315858841,0.06696439534425735,0.0014181551523506641,-9.89711856842041,0.0,0.0,33.16792678833008,1.0,1.0,8010.0,4005.0,1668050421.727661
249447759.0,0.0011362001532688737,0.0011981253046542406,-0.005337697919458151,0.10307155549526215,-0.006283571012318134,-9.81788158416748,0.0,0.0,33.16901397705078,1.0,1.0,8010.0,4005.0,1668050421.76678
249487739.0,0.0007568095461465418,-0.0008892265614122152,-0.002577069215476513,0.13345256447792053,0.022342301905155182,-9.805085182189941,0.0,0.0,33.1701545715332,1.0,1.0,8010.0,4005.0,1668050421.80676
249527807.0,0.0014543574070557952,-0.0016023797215893865,0.000419231946580112,0.12711159884929657,0.011748326942324638,-9.832988739013672,0.0,0.0,33.17190170288086,1.0,1.0,8010.0,4005.0,1668050421.846828
249567968.0,0.0012929609511047602,-0.0032668178901076317,0.0014565986348316073,0.08243543654680252,0.021695632487535477,-9.860968589782715,0.0,0.0,33.17329025268555,1.0,1.0,8010.0,4005.0,1668050421.8869889
249608391.0,0.0011209567310288548,-0.0029333261772990227,0.0016989745199680328,0.04748890548944473,-0.012820051051676273,-9.804190635681152,0.0,0.0,33.174346923828125,1.0,1.0,8010.0,4005.0,1668050421.927412
249647752.0,0.0021545039489865303,-0.001778317615389824,-0.0008353680605068803,0.03619380667805672,-0.016870129853487015,-9.833439826965332,0.0,0.0,33.17488098144531,1.0,1.0,8010.0,4005.0,1668050421.966773
249687785.0,0.0011418964713811874,-7.921649375930429e-05,-0.0036971012596040964,0.03967009484767914,0.015234840102493763,-9.79780387878418,0.0,0.0,33.174678802490234,1.0,1.0,8010.0,4005.0,1668050422.006806
249727721.0,0.0006957349251024425,-1.0574884072411805e-05,-0.004578429274260998,0.10168475657701492,0.003376122796908021,-9.877565383911133,0.0,0.0,33.17417907714844,1.0,1.0,8010.0,4005.0,1668050422.046742
249767660.0,0.0008316320599988103,0.0005339933559298515,-0.0033662740606814623,0.12360303103923798,0.03490302711725235,-9.813023567199707,0.0,0.0,33.17388916015625,1.0,1.0,8010.0,4005.0,1668050422.086681
249808391.0,0.0010541455121710896,-0.0014696249272674322,-0.0009361879201605916,0.14410185813903809,0.015709495171904564,-9.850944519042969,0.0,0.0,33.17488098144531,1.0,1.0,8010.0,4005.0,1668050422.127412
249847831.0,0.0019509511766955256,-0.003332702675834298,0.0015317077049985528,0.09369047731161118,0.019551562145352364,-9.832151412963867,0.0,0.0,33.17643737792969,1.0,1.0,8010.0,4005.0,1668050422.166852
252808391.0,0.00022012600675225258,-0.0035923845134675503,-0.00933169573545456,0.09609916806221008,-0.05343879014253616,-10.073629379272461,0.0,0.0,33.231903076171875,1.0,1.0,8010.0,4005.0,1668050425.127412
252859592.0,0.0013257728423923254,0.004279203712940216,-0.0032196869142353535,-0.25352686643600464,0.101298987865448,-9.72899055480957,0.0,0.0,33.23273468017578,1.0,1.0,8010.0,4005.0,1668050425.178613
252899608.0,0.0005402874667197466,-0.00032807327806949615,-0.007855244912207127,0.2854870855808258,-0.039404477924108505,-9.975252151489258,0.0,0.0,33.2336540222168,1.0,1.0,8010.0,4005.0,1668050425.218629
252939664.0,0.0008320786873809993,0.000600309984292835,0.0016619437374174595,0.1504310965538025,-0.01626596786081791,-9.8331937789917,0.0,0.0,33.23487854003906,1.0,1.0,8010.0,4005.0,1668050425.2586849
252979805.0,0.00010332432430004701,-0.006173021160066128,0.00013536642654798925,0.13066363334655762,0.05112079530954361,-9.864391326904297,0.0,0.0,33.2351188659668,1.0,1.0,8010.0,4005.0,1668050425.298826
253020427.0,0.001154577941633761,-0.0026679362636059523,0.004601066000759602,0.1537058800458908,-0.008144557476043701,-9.715375900268555,0.0,0.0,33.23515319824219,1.0,1.0,8010.0,4005.0,1668050425.339448
253059847.0,0.0005852472968399525,-0.0042232791893184185,0.0029059015214443207,-0.16571912169456482,-0.004296966828405857,-9.873173713684082,0.0,0.0,33.23588943481445,1.0,1.0,8010.0,4005.0,1668050425.378868
253099625.0,0.0011744239600375295,-0.001525977742858231,-0.005142411217093468,0.20449265837669373,-0.03031301312148571,-9.79436206817627,0.0,0.0,33.237152099609375,1.0,1.0,8010.0,4005.0,1668050425.418646
253139712.0,0.0019332594238221645,0.002018136205151677,-0.0031850747764110565,-0.11149589717388153,0.01789267361164093,-9.835213661193848,0.0,0.0,33.237789154052734,1.0,1.0,8010.0,4005.0,1668050425.458733
253179863.0,3.1170202419161797e-05,-0.0005978140980005264,-0.007151812314987183,0.23782876133918762,-0.084293432533741,-9.879047393798828,0.0,0.0,33.23827362060547,1.0,1.0,8010.0,4005.0,1668050425.498884
253220180.0,0.0014572053914889693,-0.0002521587011869997,-0.004171529784798622,0.12447626888751984,0.12957900762557983,-9.779081344604492,0.0,0.0,33.23948669433594,1.0,1.0,8010.0,4005.0,1668050425.539201
253259784.0,0.00012254358443897218,-0.003006499959155917,0.0021183055359870195,0.24290165305137634,-0.004671962931752205,-9.80026912689209,0.0,0.0,33.24052810668945,1.0,1.0,8010.0,4005.0,1668050425.578805
253299732.0,0.0016043918440118432,-0.004176998510956764,0.0024364423006772995,-0.026166323572397232,-0.048299871385097504,-9.802292823791504,0.0,0.0,33.24137878417969,1.0,1.0,8010.0,4005.0,1668050425.618753
253339696.0,0.002305629663169384,-0.004294290207326412,0.0015193363651633263,0.08459170162677765,0.08498799800872803,-9.847147941589355,0.0,0.0,33.242740631103516,1.0,1.0,8010.0,4005.0,1668050425.658717
253379907.0,-1.3489741832017899e-05,0.0006540094618685544,-0.00012225017417222261,0.0020222729071974754,-0.05259170010685921,-9.765560150146484,0.0,0.0,33.244140625,1.0,1.0,8010.0,4005.0,1668050425.6989279
253420125.0,0.0008536654058843851,-0.0018117388244718313,-0.0034048822708427906,0.014070745557546616,-0.060433149337768555,-9.945939064025879,0.0,0.0,33.24555206298828,1.0,1.0,8010.0,4005.0,1668050425.739146
253459919.0,0.0002968155895359814,0.0014707866357639432,-0.007241907995194197,0.16051599383354187,0.07303598523139954,-9.831029891967773,0.0,0.0,33.247032165527344,1.0,1.0,8010.0,4005.0,1668050425.77894
253499955.0,0.00023575228988192976,0.0007456799503415823,-0.004826108925044537,0.13398712873458862,0.07018342614173889,-9.80859375,0.0,0.0,33.248600006103516,1.0,1.0,8010.0,4005.0,1668050425.818976
253539733.0,0.002139647724106908,-0.0024324492551386356,0.0005224214401096106,0.14318335056304932,-0.004907548427581787,-9.794605255126953,0.0,0.0,33.24995040893555,1.0,1.0,8010.0,4005.0,1668050425.858754
253579650.0,0.002071348950266838,-0.004734913818538189,0.0018112694378942251,0.10211098939180374,-0.008918091654777527,-9.841972351074219,0.0,0.0,33.250938415527344,1.0,1.0,8010.0,4005.0,1668050425.898671
253620104.0,0.0008465588907711208,-0.002170893596485257,0.0018949832301586866,-0.010453954339027405,0.04259420931339264,-9.795662879943848,0.0,0.0,33.251888275146484,1.0,1.0,8010.0,4005.0,1668050425.939125
253659960.0,0.00033968998468481004,-0.002360191661864519,-3.935084350814577e-06,0.06951078772544861,-0.024220455437898636,-9.84292221069336,0.0,0.0,33.25253677368164,1.0,1.0,8010.0,4005.0,1668050425.978981
253700003.0,0.0010907382238656282,0.0008438045042566955,-0.0019706522580236197,0.000777970883063972,-0.017952222377061844,-9.833576202392578,0.0,0.0,33.25334167480469,1.0,1.0,8010.0,4005.0,1668050426.019024
253739757.0,0.0015769924502819777,0.0013923730002716184,-0.004593520890921354,0.11330343782901764,0.015735328197479248,-9.80296802520752,0.0,0.0,33.25433349609375,1.0,1.0,8010.0,4005.0,1668050426.058778
253779784.0,0.000866608286742121,9.14026313694194e-05,-0.005144164897501469,0.11687400937080383,-0.014565235935151577,-9.871648788452148,0.0,0.0,33.25414276123047,1.0,1.0,8010.0,4005.0,1668050426.098805
253820187.0,0.0012067757779732347,-0.000815448525827378,-0.00271904980763793,0.1658850908279419,0.07133921980857849,-9.794153213500977,0.0,0.0,33.25352478027344,1.0,1.0,8010.0,4005.0,1668050426.139208
253859686.0,0.0025422468315809965,-0.0036560790613293648,0.0009207638795487583,0.09883104264736176,-0.02399611659348011,-9.840679168701172,0.0,0.0,33.25315856933594,1.0,1.0,8010.0,4005.0,1668050426.178707
253899708.0,0.002365138614550233,-0.004433979745954275,0.00296018342487514,0.036210380494594574,-0.0275955218821764,-9.817256927490234,0.0,0.0,33.25401306152344,1.0,1.0,8010.0,4005.0,1668050426.218729
253939620.0,0.00043054326670244336,-0.0026591080240905285,0.0014318046160042286,0.0023727756924927235,-0.0027055738028138876,-9.861759185791016,0.0,0.0,33.25491714477539,1.0,1.0,8010.0,4005.0,1668050426.258641
253979918.0,0.0005822397652082145,0.000351067166775465,-0.00233886344358325,0.01800835318863392,0.011391893960535526,-9.821688652038574,0.0,0.0,33.256256103515625,1.0,1.0,8010.0,4005.0,1668050426.298939
254020422.0,0.0010066535323858261,0.0004923129454255104,-0.004414482973515987,0.09764766693115234,0.023498686030507088,-9.876399040222168,0.0,0.0,33.25798034667969,1.0,1.0,8010.0,4005.0,1668050426.339443
254059801.0,0.0015271486481651664,0.0005056352238170803,-0.004238774999976158,0.14997585117816925,0.05528445169329643,-9.787162780761719,0.0,0.0,33.25932312011719,1.0,1.0,8010.0,4005.0,1668050426.378822
254099808.0,0.0016708873445168138,-0.0017529110191389918,-0.0015734218759462237,0.14637331664562225,-0.015374020673334599,-9.834465026855469,0.0,0.0,33.26044464111328,1.0,1.0,8010.0,4005.0,1668050426.418829
254139656.0,0.0006984082865528762,-0.003664076328277588,0.00012632165453396738,0.07953816652297974,0.002754482440650463,-9.804730415344238,0.0,0.0,33.26124572753906,1.0,1.0,8010.0,4005.0,1668050426.458677
254179922.0,0.0008275547879748046,-0.0038470719009637833,0.00029622160946018994,0.043961361050605774,0.05207227170467377,-9.825373649597168,0.0,0.0,33.26203155517578,1.0,1.0,8010.0,4005.0,1668050426.498943
254220176.0,0.0017554067308083177,-0.0016883948119357228,-0.0001610746403457597,0.0040409318171441555,0.0010674160439521074,-9.851308822631836,0.0,0.0,33.26319885253906,1.0,1.0,8010.0,4005.0,1668050426.539197
254259744.0,0.0020620296709239483,-0.00015887836343608797,-0.0014179120771586895,0.06023938208818436,0.029347287490963936,-9.848258018493652,0.0,0.0,33.26396560668945,1.0,1.0,8010.0,4005.0,1668050426.578765
254299782.0,0.001737163751386106,0.0007733447127975523,-0.0023315686266869307,0.11098315566778183,-0.02844845876097679,-9.815004348754883,0.0,0.0,33.264312744140625,1.0,1.0,8010.0,4005.0,1668050426.618803
254339606.0,0.002181457355618477,0.0004925341345369816,-0.002422082470729947,0.15014217793941498,-0.021429620683193207,-9.829383850097656,0.0,0.0,33.26401138305664,1.0,1.0,8010.0,4005.0,1668050426.658627
254380008.0,0.0008181416778825223,-0.001563867088407278,-0.0017405099933966994,0.12439113855361938,0.026019999757409096,-9.811066627502441,0.0,0.0,33.264068603515625,1.0,1.0,8010.0,4005.0,1668050426.699029
254420179.0,0.0006091754185035825,-0.0035513038747012615,-0.0010638777166604996,0.11197979748249054,0.02300623431801796,-9.81466293334961,0.0,0.0,33.2647705078125,1.0,1.0,8010.0,4005.0,1668050426.7391999
254459800.0,0.002043107757344842,-0.00287810992449522,-0.0006814308580942452,0.0050795478746294975,0.02506813034415245,-9.845659255981445,0.0,0.0,33.265380859375,1.0,1.0,8010.0,4005.0,1668050426.778821
254499940.0,0.001985476817935705,-0.0010471076238900423,-0.0007337610586546361,0.03973089158535004,0.00273373001255095,-9.816105842590332,0.0,0.0,33.266387939453125,1.0,1.0,8010.0,4005.0,1668050426.818961
254539603.0,0.0022014728747308254,-0.00015402094868477434,-0.001433774596080184,0.031749822199344635,0.0013393221888691187,-9.840364456176758,0.0,0.0,33.267372131347656,1.0,1.0,8010.0,4005.0,1668050426.858624
254579962.0,0.0007377834990620613,0.0009925547055900097,-0.001945482101291418,0.1177830919623375,-0.03761669993400574,-9.822686195373535,0.0,0.0,33.26797866821289,1.0,1.0,8010.0,4005.0,1668050426.898983
254620217.0,-0.0003302006225567311,7.220077532110736e-05,-0.0019147505518049002,0.12708456814289093,0.007175492122769356,-9.861933708190918,0.0,0.0,33.268516540527344,1.0,1.0,8010.0,4005.0,1668050426.939238
254659796.0,0.0007991178426891565,-0.0010533012682572007,-0.0007824342465028167,0.13638778030872345,0.07110737264156342,-9.8335542678833,0.0,0.0,33.26906967163086,1.0,1.0,8010.0,4005.0,1668050426.978817
254699929.0,0.002358997706323862,-0.0031028734520077705,-8.526505553163588e-06,0.10367721319198608,0.028469063341617584,-9.848518371582031,0.0,0.0,33.270084381103516,1.0,1.0,8010.0,4005.0,1668050427.01895
254739778.0,0.002283332869410515,-0.003254115115851164,-0.00010415899305371568,0.03659028187394142,-0.010863320901989937,-9.784646034240723,0.0,0.0,33.27070236206055,1.0,1.0,8010.0,4005.0,1668050427.058799
254779840.0,0.0023324680514633656,-0.002253012964501977,-0.0010727638145908713,0.02434086799621582,-0.02416447177529335,-9.820683479309082,0.0,0.0,33.27139663696289,1.0,1.0,8010.0,4005.0,1668050427.098861
254820245.0,0.0010131350718438625,0.00043335213558748364,-0.0025334558449685574,0.02376139722764492,-0.016196617856621742,-9.830201148986816,0.0,0.0,33.27210235595703,1.0,1.0,8010.0,4005.0,1668050427.139266
254859628.0,0.00021796562941744924,0.0006747092702426016,-0.0029273605905473232,0.10347767919301987,0.03134577348828316,-9.855219841003418,0.0,0.0,33.272911071777344,1.0,1.0,8010.0,4005.0,1668050427.178649
254899615.0,0.000813947815913707,0.0007810422102920711,-0.0021227949764579535,0.1272868663072586,0.030992839485406876,-9.870243072509766,0.0,0.0,33.273719787597656,1.0,1.0,8010.0,4005.0,1668050427.218636
254939664.0,0.0017402394441887736,-0.001168310409411788,-0.000867209630087018,0.1573699712753296,0.04061300307512283,-9.810988426208496,0.0,0.0,33.273643493652344,1.0,1.0,8010.0,4005.0,1668050427.2586849
254979760.0,0.0027809282764792442,-0.0031950692646205425,0.0002768564154393971,0.09110026806592941,-0.0064699845388531685,-9.780059814453125,0.0,0.0,33.27421188354492,1.0,1.0,8010.0,4005.0,1668050427.298781
255020343.0,0.002236616797745228,-0.003743014996871352,-0.0002426642458885908,0.05273839831352234,-0.028723236173391342,-9.786213874816895,0.0,0.0,33.27484893798828,1.0,1.0,8010.0,4005.0,1668050427.339364
255059812.0,0.001035960391163826,-0.002167798113077879,-0.0016114844474941492,-0.0042136190459132195,0.010426802560687065,-9.849344253540039,0.0,0.0,33.27549362182617,1.0,1.0,8010.0,4005.0,1668050427.378833
255099723.0,0.0008925134316086769,1.7479047528468072e-05,-0.002439234871417284,0.048216357827186584,0.008126065135002136,-9.876274108886719,0.0,0.0,33.2762451171875,1.0,1.0,8010.0,4005.0,1668050427.418744
255139826.0,0.00037376416730694473,0.0008408640278503299,-0.0027962999884039164,0.07820891588926315,0.036531962454319,-9.875351905822754,0.0,0.0,33.27689743041992,1.0,1.0,8010.0,4005.0,1668050427.458847
255179853.0,0.0013839536113664508,0.0009590201079845428,-0.0019467418314889073,0.1412990391254425,0.025832505896687508,-9.798336029052734,0.0,0.0,33.277252197265625,1.0,1.0,8010.0,4005.0,1668050427.498874
255220043.0,0.0022341248113662004,-0.0010166161227971315,-0.0010062482906505466,0.14257168769836426,0.009120462462306023,-9.774886131286621,0.0,0.0,33.2778434753418,1.0,1.0,8010.0,4005.0,1668050427.539064
255259806.0,0.0021746032871305943,-0.002607987029477954,0.00026832203730009496,0.11423420161008835,-0.009839617647230625,-9.780131340026855,0.0,0.0,33.278892517089844,1.0,1.0,8010.0,4005.0,1668050427.578827
255299669.0,0.001546707353554666,-0.0040655722841620445,0.00029453347087837756,0.04816853627562523,-0.014715964905917645,-9.843624114990234,0.0,0.0,33.28003692626953,1.0,1.0,8010.0,4005.0,1668050427.61869
255339728.0,0.0007770766969770193,-0.0023430506698787212,-0.0011258403537794948,0.0042234449647367,0.015246955677866936,-9.856788635253906,0.0,0.0,33.28142547607422,1.0,1.0,8010.0,4005.0,1668050427.658749
255379778.0,0.0012523509794846177,-0.0005149584612809122,-0.0020172307267785072,0.0423659011721611,0.028673458844423294,-9.85793399810791,0.0,0.0,33.28315734863281,1.0,1.0,8010.0,4005.0,1668050427.698799
255420083.0,0.0018796336371451616,0.0010766577906906605,-0.0016594624612480402,0.08098651468753815,0.016877751797437668,-9.810466766357422,0.0,0.0,33.284297943115234,1.0,1.0,8010.0,4005.0,1668050427.739104
255459827.0,0.0011962661519646645,0.0007394709973596036,-0.0021737837232649326,0.14108215272426605,-0.010814262554049492,-9.803922653198242,0.0,0.0,33.28563690185547,1.0,1.0,8010.0,4005.0,1668050427.778848
255500036.0,0.0011358666233718395,-0.0012347244191914797,-0.001614872831851244,0.13620086014270782,0.0010719150304794312,-9.815716743469238,0.0,0.0,33.2872314453125,1.0,1.0,8010.0,4005.0,1668050427.819057
255539747.0,0.0013485958334058523,-0.0031124474480748177,-0.0009614647133275867,0.12262766063213348,0.01969977281987667,-9.810951232910156,0.0,0.0,33.288726806640625,1.0,1.0,8010.0,4005.0,1668050427.858768
255579835.0,0.00097798986826092,-0.003619076684117317,-0.00014843766984995455,0.05403679981827736,0.016121502965688705,-9.842215538024902,0.0,0.0,33.290096282958984,1.0,1.0,8010.0,4005.0,1668050427.898856
258420264.0,-0.0001795034622773528,-0.0011546177556738257,-0.0014908176381140947,0.047873444855213165,-0.21176230907440186,-9.726195335388184,0.0,0.0,33.346092224121094,1.0,1.0,8010.0,4005.0,1668050430.739285
258472136.0,0.0025064642541110516,-0.0005711701815016568,-0.002856167498975992,0.028297793120145798,0.28284043073654175,-9.82713508605957,0.0,0.0,33.34833526611328,1.0,1.0,8010.0,4005.0,1668050430.791157
258511804.0,0.0035076970234513283,-0.00039911139174364507,0.0018638813635334373,0.1345989853143692,-0.10450226813554764,-9.881125450134277,0.0,0.0,33.34963607788086,1.0,1.0,8010.0,4005.0,1668050430.830825
258551765.0,0.002161032520234585,-0.0009294465999118984,0.0006004066090099514,0.11022329330444336,-0.1890173852443695,-9.874839782714844,0.0,0.0,33.35088348388672,1.0,1.0,8010.0,4005.0,1668050430.870786
258591727.0,-5.404825787991285e-05,-0.0031237294897437096,-0.0026474776677787304,0.15966923534870148,0.24320252239704132,-9.757660865783691,0.0,0.0,33.352054595947266,1.0,1.0,8010.0,4005.0,1668050430.910748
258632351.0,-0.0005177847924642265,-0.003133934922516346,0.0006502302130684257,0.07089877873659134,-0.03627448156476021,-9.831265449523926,0.0,0.0,33.35285949707031,1.0,1.0,8010.0,4005.0,1668050430.951372
258672250.0,0.0021636472083628178,-0.0029261475428938866,-0.002512524835765362,0.06936206668615341,-0.07313178479671478,-9.855704307556152,0.0,0.0,33.35401153564453,1.0,1.0,8010.0,4005.0,1668050430.991271
258711841.0,0.0034101465716958046,-0.0023583071306347847,-0.004751455504447222,0.06832677125930786,0.11738194525241852,-9.835259437561035,0.0,0.0,33.35466766357422,1.0,1.0,8010.0,4005.0,1668050431.030862
258751810.0,0.0013084795791655779,-0.0007859050529077649,-0.00025408054352737963,0.019667165353894234,-0.00572566594928503,-9.830219268798828,0.0,0.0,33.35470962524414,1.0,1.0,8010.0,4005.0,1668050431.070831
258791993.0,0.0021601018961519003,-5.1534771046135575e-05,0.0010975998593494296,0.07153847813606262,-0.14760687947273254,-9.859394073486328,0.0,0.0,33.3551025390625,1.0,1.0,8010.0,4005.0,1668050431.111014
258832347.0,0.0018473970703780651,-0.0012865570606663823,-0.0034104937221854925,0.20264776051044464,0.10871272534132004,-9.789273262023926,0.0,0.0,33.355838775634766,1.0,1.0,8010.0,4005.0,1668050431.151368
258871821.0,-0.0018012947402894497,-0.0017936830408871174,-0.001068162266165018,0.05414101481437683,0.14034637808799744,-9.810772895812988,0.0,0.0,33.35678482055664,1.0,1.0,8010.0,4005.0,1668050431.190842
258911773.0,0.0002896669029723853,-0.002856683451682329,0.0027786751743406057,0.07472553104162216,-0.05126302316784859,-9.848590850830078,0.0,0.0,33.357913970947266,1.0,1.0,8010.0,4005.0,1668050431.230794
258951814.0,0.005731514655053616,-0.0026335734874010086,-0.00135808193590492,0.07516547292470932,6.590283010154963e-05,-9.85287857055664,0.0,0.0,33.35807800292969,1.0,1.0,8010.0,4005.0,1668050431.270835
258991731.0,0.0013109085848554969,-0.0011123293079435825,-0.004651210270822048,0.15630893409252167,-0.015459999442100525,-9.787461280822754,0.0,0.0,33.35737609863281,1.0,1.0,8010.0,4005.0,1668050431.310752
259032538.0,-0.002457506489008665,-0.0016408120281994343,-0.003766493871808052,0.047298185527324677,0.09190365672111511,-9.851615905761719,0.0,0.0,33.3566780090332,1.0,1.0,8010.0,4005.0,1668050431.351559
259072253.0,0.0024139960296452045,-0.0016732506919652224,-0.0008449036395177245,0.08952867239713669,-0.05772283673286438,-9.82621955871582,0.0,0.0,33.35697555541992,1.0,1.0,8010.0,4005.0,1668050431.391274
259111749.0,0.003939064219594002,-0.0003058771835640073,-3.776668791033444e-06,0.057422999292612076,0.024626579135656357,-9.843928337097168,0.0,0.0,33.357425689697266,1.0,1.0,8010.0,4005.0,1668050431.43077
259151869.0,0.0004060037899762392,-0.000725774560123682,1.1658969924610574e-05,0.12355388700962067,-0.008609944954514503,-9.798521041870117,0.0,0.0,33.35816955566406,1.0,1.0,8010.0,4005.0,1668050431.47089
259191852.0,-0.0009521376923657954,-0.0015234950697049499,-0.001718900864943862,0.15375855565071106,-0.00329997087828815,-9.817953109741211,0.0,0.0,33.358848571777344,1.0,1.0,8010.0,4005.0,1668050431.510873
259232230.0,0.0021796978544443846,-0.0033535961993038654,-0.001519305631518364,0.041935622692108154,0.09396898001432419,-9.82662296295166,0.0,0.0,33.35938262939453,1.0,1.0,8010.0,4005.0,1668050431.551251
259272101.0,0.004578093998134136,-0.0021342497784644365,-0.00013468394172377884,0.031023278832435608,-0.015226089395582676,-9.846497535705566,0.0,0.0,33.36056137084961,1.0,1.0,8010.0,4005.0,1668050431.591122
259311821.0,0.0022876118309795856,-0.001216826494783163,0.00014347594697028399,0.04777013510465622,-0.1199737936258316,-9.834088325500488,0.0,0.0,33.36204147338867,1.0,1.0,8010.0,4005.0,1668050431.630842
259351889.0,-0.001584062585607171,-0.0003197495243512094,-0.00304001709446311,0.07466276735067368,-0.010361097753047943,-9.842472076416016,0.0,0.0,33.36336898803711,1.0,1.0,8010.0,4005.0,1668050431.67091
259392001.0,-0.0005982743459753692,-0.0011139322305098176,-0.004951165057718754,0.15561169385910034,0.09603001922369003,-9.802999496459961,0.0,0.0,33.36442184448242,1.0,1.0,8010.0,4005.0,1668050431.711022
259432293.0,0.0013002940686419606,-0.0010269907070323825,-0.0018268065759912133,0.07991643995046616,0.10879337787628174,-9.829949378967285,0.0,0.0,33.365325927734375,1.0,1.0,8010.0,4005.0,1668050431.751314
259471982.0,0.0037962247151881456,-0.002515111118555069,0.0024495888501405716,0.07588283717632294,0.041871458292007446,-9.808818817138672,0.0,0.0,33.36537551879883,1.0,1.0,8010.0,4005.0,1668050431.791003
259511731.0,0.00430033914744854,-0.0016912438441067934,0.00355468038469553,0.04168105870485306,-0.13963279128074646,-9.836362838745117,0.0,0.0,33.365257263183594,1.0,1.0,8010.0,4005.0,1668050431.830752
259552016.0,0.0010927894618362188,-0.0008258853922598064,-0.0007204263238236308,0.062208984047174454,-0.0747474953532219,-9.831793785095215,0.0,0.0,33.3654899597168,1.0,1.0,8010.0,4005.0,1668050431.871037
259591818.0,-0.001492397510446608,-0.00043295827344991267,-0.00419969018548727,0.08287376910448074,0.005729581695050001,-9.838354110717773,0.0,0.0,33.36606216430664,1.0,1.0,8010.0,4005.0,1668050431.910839
259632188.0,-0.0012857567053288221,-0.0008699253667145967,-0.006305013783276081,0.13084720075130463,0.11102557927370071,-9.828845024108887,0.0,0.0,33.36676025390625,1.0,1.0,8010.0,4005.0,1668050431.951209
259671938.0,0.002053023548796773,-0.0012115086428821087,-0.004178048577159643,0.08059854060411453,0.123835489153862,-9.822519302368164,0.0,0.0,33.36742401123047,1.0,1.0,8010.0,4005.0,1668050431.990959
259711850.0,0.006304231006652117,-0.002895006677135825,0.00033396502840332687,0.10733632743358612,-0.003134121187031269,-9.86349868774414,0.0,0.0,33.3685302734375,1.0,1.0,8010.0,4005.0,1668050432.030871
259751848.0,0.004400314763188362,-0.0019302999135106802,0.0035857793409377337,0.04730076715350151,-0.10709565877914429,-9.80967903137207,0.0,0.0,33.3693733215332,1.0,1.0,8010.0,4005.0,1668050432.070869
259792006.0,-0.0002483675489202142,-0.001375142834149301,0.002497358014807105,0.03948454186320305,-0.08674490451812744,-9.85243034362793,0.0,0.0,33.370609283447266,1.0,1.0,8010.0,4005.0,1668050432.111027
259832248.0,-0.002452820772305131,-0.000628642097581178,-0.0005227020592428744,0.06407169252634048,0.046819280833005905,-9.820440292358398,0.0,0.0,33.37161636352539,1.0,1.0,8010.0,4005.0,1668050432.151269
259871733.0,-0.0012910227524116635,5.514286021934822e-05,-0.0038778898306190968,0.11203267425298691,0.1100427433848381,-9.828872680664062,0.0,0.0,33.372406005859375,1.0,1.0,8010.0,4005.0,1668050432.190754
259911816.0,0.002593799727037549,0.00012690515723079443,-0.005437027662992477,0.12181763350963593,0.054610878229141235,-9.781883239746094,0.0,0.0,33.37302780151367,1.0,1.0,8010.0,4005.0,1668050432.2308369
259951921.0,0.0053065125830471516,-0.0023478218354284763,-0.004910196177661419,0.1231389045715332,-0.021312139928340912,-9.870564460754395,0.0,0.0,33.37410354614258,1.0,1.0,8010.0,4005.0,1668050432.270942
259991717.0,0.0032522238325327635,-0.002758174668997526,-0.0017387345433235168,0.08223172277212143,-0.06380784511566162,-9.818041801452637,0.0,0.0,33.37553405761719,1.0,1.0,8010.0,4005.0,1668050432.310738
260032535.0,0.0004747070779558271,-0.002545909723266959,0.00081634521484375,0.05546223372220993,-0.04111591354012489,-9.814186096191406,0.0,0.0,33.37645721435547,1.0,1.0,8010.0,4005.0,1668050432.351556
260072166.0,-0.0011307087261229753,-0.0021771197207272053,0.002910132519900799,0.010045958682894707,0.07483837008476257,-9.832079887390137,0.0,0.0,33.377601623535156,1.0,1.0,8010.0,4005.0,1668050432.391187
260111786.0,-0.0003615958848968148,-0.0002658134326338768,0.0028140346985310316,0.049094684422016144,0.08007503300905228,-9.851329803466797,0.0,0.0,33.37908935546875,1.0,1.0,8010.0,4005.0,1668050432.4308069
260151900.0,0.002646178239956498,0.0008049463503994048,0.0005375290638767183,0.10697473585605621,-0.009629000909626484,-9.828946113586426,0.0,0.0,33.38003158569336,1.0,1.0,8010.0,4005.0,1668050432.470921
260191729.0,0.003531585680320859,0.00019476571469567716,-0.0037310963962227106,0.12288777530193329,-0.026943029835820198,-9.80607795715332,0.0,0.0,33.38063049316406,1.0,1.0,8010.0,4005.0,1668050432.51075
260232404.0,0.0026033627800643444,-0.0018670170102268457,-0.005986073054373264,0.11854712665081024,-0.053827933967113495,-9.804831504821777,0.0,0.0,33.381675720214844,1.0,1.0,8010.0,4005.0,1668050432.551425
260272143.0,0.0004188317689113319,-0.0027500102296471596,-0.005667694844305515,0.08047850430011749,-0.018845506012439728,-9.797391891479492,0.0,0.0,33.382381439208984,1.0,1.0,8010.0,4005.0,1668050432.5911639
260311828.0,-0.00032168850884772837,-0.003253720933571458,-0.003072677878662944,0.05830702930688858,0.04702891409397125,-9.875716209411621,0.0,0.0,33.3834114074707,1.0,1.0,8010.0,4005.0,1668050432.630849
260351813.0,0.0011427323333919048,-0.0014670598320662975,0.001427109818905592,0.02981891669332981,0.07447987794876099,-9.862616539001465,0.0,0.0,33.38456344604492,1.0,1.0,8010.0,4005.0,1668050432.670834
260391789.0,0.0023143531288951635,-0.0007329280488193035,0.003315530251711607,0.06456608325242996,0.004392138682305813,-9.843025207519531,0.0,0.0,33.3850212097168,1.0,1.0,8010.0,4005.0,1668050432.71081
260432403.0,0.0029700046870857477,0.00035055182524956763,0.0019439163152128458,0.0944986566901207,-0.03590092435479164,-9.7759370803833,0.0,0.0,33.385746002197266,1.0,1.0,8010.0,4005.0,1668050432.751424
260472048.0,0.0015867582987993956,-0.0004513922904152423,-0.001504075713455677,0.12457166612148285,-0.04334452375769615,-9.82232666015625,0.0,0.0,33.38710403442383,1.0,1.0,8010.0,4005.0,1668050432.791069
260512089.0,0.00010805965575855225,-0.0015356333460658789,-0.005065907258540392,0.10681357979774475,-0.003294841619208455,-9.80855941772461,0.0,0.0,33.3887825012207,1.0,1.0,8010.0,4005.0,1668050432.83111
260551817.0,0.0002324664528714493,-0.0028009116649627686,-0.0061414544470608234,0.0888875424861908,0.048206914216279984,-9.864893913269043,0.0,0.0,33.39047622680664,1.0,1.0,8010.0,4005.0,1668050432.870838
260591746.0,0.001605482306331396,-0.0023122630082070827,-0.004067427013069391,0.03816857188940048,0.06962834298610687,-9.825536727905273,0.0,0.0,33.391780853271484,1.0,1.0,8010.0,4005.0,1668050432.910767
260632326.0,0.002684872131794691,-0.0018595028668642044,0.0001271215733140707,0.058754146099090576,0.0005905075813643634,-9.819091796875,0.0,0.0,33.39328384399414,1.0,1.0,8010.0,4005.0,1668050432.9513469
260672154.0,0.0025629105512052774,-0.0006458153366111219,0.0023502176627516747,0.05652408301830292,-0.05146293342113495,-9.820489883422852,0.0,0.0,33.39400100708008,1.0,1.0,8010.0,4005.0,1668050432.991175
260711760.0,0.0009831663919612765,-0.0003601907519623637,0.0016710024792701006,0.129623681306839,-0.02596384473145008,-9.834301948547363,0.0,0.0,33.39503860473633,1.0,1.0,8010.0,4005.0,1668050433.030781
260751801.0,0.00012870051432400942,-0.0008361341897398233,0.00012639493797905743,0.10963714867830276,0.014889487065374851,-9.834599494934082,0.0,0.0,33.39596176147461,1.0,1.0,8010.0,4005.0,1668050433.070822
260791804.0,0.0006687079439871013,-0.0017063635168597102,-0.0018832436762750149,0.12335410714149475,0.04054988548159599,-9.837949752807617,0.0,0.0,33.396812438964844,1.0,1.0,8010.0,4005.0,1668050433.110825
260832377.0,0.0023231564555317163,-0.0029452070593833923,-0.004159223288297653,0.06409332156181335,0.02421950176358223,-9.801229476928711,0.0,0.0,33.39778137207031,1.0,1.0,8010.0,4005.0,1668050433.151398
260872325.0,0.003009131643921137,-0.0025771057698875666,-0.003874471876770258,0.06763304024934769,-0.004599648527801037,-9.789316177368164,0.0,0.0,33.39810562133789,1.0,1.0,8010.0,4005.0,1668050433.191346
260911782.0,0.0024351703468710184,-0.002048162743449211,-0.0022680917754769325,0.04598775506019592,-0.042710185050964355,-9.854475021362305,0.0,0.0,33.39735794067383,1.0,1.0,8010.0,4005.0,1668050433.230803
260951838.0,0.00122540770098567,-0.00016367282660212368,-0.0005406299023889005,0.06418970972299576,-0.010117463767528534,-9.847679138183594,0.0,0.0,33.39641189575195,1.0,1.0,8010.0,4005.0,1668050433.270859
260991794.0,-0.0003254499169997871,-7.031724089756608e-05,0.00050375796854496,0.0919322520494461,0.02842852659523487,-9.863029479980469,0.0,0.0,33.39591598510742,1.0,1.0,8010.0,4005.0,1668050433.310815
261032580.0,0.0006484912591986358,-0.00046411785297095776,0.0003466153284534812,0.09859917312860489,0.039119184017181396,-9.798412322998047,0.0,0.0,33.39590835571289,1.0,1.0,8010.0,4005.0,1668050433.351601
261072218.0,0.002186787547543645,-0.0014995054807513952,-0.0003959920140914619,0.1114792600274086,0.04243459552526474,-9.803071975708008,0.0,0.0,33.395912170410156,1.0,1.0,8010.0,4005.0,1668050433.391239
261111709.0,0.002432674402371049,-0.002271114382892847,-0.0019275584490969777,0.08540822565555573,-0.018673375248908997,-9.775447845458984,0.0,0.0,33.39646911621094,1.0,1.0,8010.0,4005.0,1668050433.43073
261151908.0,0.0021287212148308754,-0.002739543793722987,-0.0037478439044207335,0.07433164119720459,-0.034639548510313034,-9.880313873291016,0.0,0.0,33.397403717041016,1.0,1.0,8010.0,4005.0,1668050433.470929
261191809.0,0.0010009377729147673,-0.001961987931281328,-0.0037949003744870424,0.04592306166887283,0.009999713860452175,-9.844837188720703,0.0,0.0,33.398590087890625,1.0,1.0,8010.0,4005.0,1668050433.51083
261232375.0,0.00016613931802567095,-0.0010835829889401793,-0.0022887573577463627,0.06591004133224487,0.016348809003829956,-9.837218284606934,0.0,0.0,33.39974594116211,1.0,1.0,8010.0,4005.0,1668050433.551396
261272257.0,0.0010536608751863241,8.503420394845307e-05,3.40032420353964e-05,0.07136161625385284,0.04377613961696625,-9.801403045654297,0.0,0.0,33.40093231201172,1.0,1.0,8010.0,4005.0,1668050433.591278
261311961.0,0.001988791860640049,-0.000725778576452285,0.0012877248227596283,0.128557950258255,0.008312677033245564,-9.81126880645752,0.0,0.0,33.40190887451172,1.0,1.0,8010.0,4005.0,1668050433.630982
261351828.0,0.0022481167688965797,-0.002004245761781931,0.000687844236381352,0.09908994287252426,-0.010870067402720451,-9.819884300231934,0.0,0.0,33.403411865234375,1.0,1.0,8010.0,4005.0,1668050433.670849
261391966.0,0.001807234832085669,-0.0022448403760790825,-0.001734923105686903,0.10237525403499603,-0.015313121490180492,-9.863876342773438,0.0,0.0,33.40496826171875,1.0,1.0,8010.0,4005.0,1668050433.710987
261432288.0,0.000577277853153646,-0.0026517908554524183,-0.003478995058685541,0.06206398457288742,0.011612431146204472,-9.824228286743164,0.0,0.0,33.40648651123047,1.0,1.0,8010.0,4005.0,1668050433.751309
261471696.0,0.0005823734099976718,-0.0018105657072737813,-0.003749348223209381,0.06007535010576248,0.039652321487665176,-9.817306518554688,0.0,0.0,33.40790557861328,1.0,1.0,8010.0,4005.0,1668050433.790717
261511887.0,0.0017219791188836098,-0.0012838342227041721,-0.002777440007776022,0.058999549597501755,0.013016407378017902,-9.818387985229492,0.0,0.0,33.40909194946289,1.0,1.0,8010.0,4005.0,1668050433.830908
261551811.0,0.0022101281210780144,-0.0004978432552888989,-0.0008989199413917959,0.0945800393819809,-0.010552722960710526,-9.834879875183105,0.0,0.0,33.41004180908203,1.0,1.0,8010.0,4005.0,1668050433.870832
